Time (s),Acceleration x (m/s^2),Acceleration y (m/s^2),Acceleration z (m/s^2)
0.000000,-0.613460,0.339482,10.199407
0.019824,-0.690030,0.599402,9.671490
0.119824,-0.679861,0.306281,9.958928
0.219824,-0.740878,0.527617,9.867702
0.319824,0.459422,0.491725,10.169197
0.419824,-1.274477,0.207876,9.642477
0.519824,-0.753141,0.606581,9.731311
0.619824,0.251845,0.406182,10.934601
0.719824,0.104985,0.470788,9.954143
0.819824,-1.748256,0.789631,10.020843
0.919824,0.550349,2.258226,9.500702
1.019824,-1.296910,1.350449,10.601102
1.119824,-1.026222,2.124826,8.890233
1.219824,-0.512064,1.504487,8.471490
1.319824,-1.280160,1.976472,7.815258
1.419824,-1.668994,-0.940080,11.996716
1.519824,-0.388235,-0.166301,12.139986
1.619824,2.130210,2.468496,5.858826
1.719824,-3.493222,-1.670190,12.379268
1.819824,-1.418346,0.201296,13.319946
1.919824,-0.646361,-0.017946,9.027522
2.019824,0.000897,4.984250,4.511069
2.119824,2.551646,2.702992,7.592725
2.219824,-0.664607,2.030908,8.985947
2.319824,-1.489532,-2.779563,13.238292
2.419824,3.643970,0.078066,11.084152
2.519824,0.154337,1.446461,12.304791
2.619824,-2.933002,-1.666302,9.265906
2.719824,2.673680,-0.395713,11.742478
2.819824,-1.236491,-0.034995,11.286346
2.919824,-3.237190,2.023431,8.669795
3.019824,-1.756332,1.525125,10.370194
3.119824,7.357032,4.373482,6.026922
3.219824,-1.603789,0.978365,5.560621
3.319824,-0.825225,1.638784,9.294920
3.419824,-1.144966,0.798605,9.861121
3.519824,-0.541376,1.251745,10.824831
3.619824,-0.598505,-1.058824,13.279268
3.719824,0.772283,-2.729313,16.720148
3.819824,-0.128315,0.975075,10.849058
3.919824,1.629811,0.825225,6.094519
4.019824,-3.189333,8.236095,1.935195
4.119824,-1.820340,3.349054,7.513164
4.219824,0.651446,-2.900998,9.884451
4.319824,2.328216,-1.590928,11.592328
4.419824,1.133301,-2.078465,10.189836
4.519824,-4.513761,-3.737589,12.359228
4.619824,-4.422534,4.235595,3.988536
4.719824,0.414257,-0.616152,12.403196
4.819824,2.183151,-3.764508,13.185649
4.919824,1.943869,2.706881,9.791729
5.019824,-0.789033,-1.288236,11.432308
5.119824,-2.601596,-0.149252,7.759326
5.219824,1.144068,0.725025,10.814362
5.319824,0.307777,5.577071,2.263012
5.419824,-3.421138,-1.838884,12.827324
5.519824,0.005683,0.426222,10.139585
5.619824,0.210269,2.993720,6.404689
5.719824,0.947259,1.156631,7.553543
5.819824,0.226720,1.933401,0.766301
5.919824,0.028415,-3.236891,15.471692
6.019824,0.763011,1.671088,7.383353
6.119824,-0.488136,-0.993021,23.447866
6.219824,1.019342,-6.270691,15.399010
6.319824,-2.405983,9.979566,0.441476
6.419824,3.784548,-5.131109,17.929121
6.519824,-0.603889,-3.179463,16.696218
6.619824,-0.166301,5.461917,-2.018047
6.719824,2.765804,-0.685544,9.412168
6.819824,0.384945,-9.234201,22.680668
6.919824,-0.763011,-2.843571,11.877374
7.019824,-4.289135,6.094819,-0.451645
7.119824,1.794617,-4.796413,18.555443
7.219824,-1.293919,-1.417448,12.230614
7.319824,-1.442573,7.776973,2.392524
7.419824,-1.265803,-1.109372,10.718349
7.519824,-3.172883,-0.834796,10.442278
7.619824,-2.073979,-0.883550,10.739287
7.719824,0.026919,-1.569692,15.233307
7.819824,-0.156730,-4.876274,14.250455
7.919824,0.601496,1.402493,8.854939
8.019824,-2.682354,-4.923233,19.831116
8.119824,-2.795714,-2.639882,13.357334
8.219824,3.506981,4.534698,0.527916
8.319824,1.304088,3.225226,5.118248
8.419824,-2.412563,-3.999902,20.224436
8.519824,0.151047,0.008973,5.397311
8.619824,-0.258425,0.155234,7.247262
8.719824,-4.374977,2.297110,5.234000
8.819824,1.750350,4.201199,1.876870
8.919824,-0.773181,12.251850,-6.489335
9.019824,4.039683,2.360819,7.439585
9.119824,6.666703,-5.295017,18.114265
9.219824,1.540380,-9.727721,22.553848
9.319824,-1.771287,0.941576,13.150056
9.419824,-0.671785,-4.087539,16.641483
9.519824,0.195912,-2.801397,13.221541
9.619824,0.016152,4.469194,5.165506
9.719824,1.698904,0.891326,9.478569
9.819824,-0.835992,-3.049054,13.679169
9.919824,-2.015056,-1.587040,18.572191
10.019824,-3.732205,-7.394420,18.856638
10.119824,-4.608277,4.558028,0.903590
10.219824,1.064208,5.436792,2.048555
10.319824,5.497809,-2.760121,13.389637
10.419824,1.884348,-0.501895,8.563613
10.519824,4.599903,0.572184,8.736495
10.619824,3.075674,6.432805,-1.697409
10.719824,1.126421,0.919143,4.368098
10.819824,1.377069,-2.286641,7.128518
10.919824,5.580661,-3.400799,11.345269
11.019824,1.310070,-2.285744,10.983953
11.119824,-3.024827,5.963811,0.534198
11.219824,2.323132,0.252144,9.290133
11.319824,4.214060,0.791426,7.971689
11.419824,-1.157229,-11.477772,25.942684
11.519824,0.545264,2.322234,7.405786
11.619824,-0.621237,-1.092922,15.346069
11.719824,-1.016351,-3.023331,12.581760
11.819824,-2.170290,-0.585045,6.649953
11.919824,2.019841,-4.835296,13.171592
12.019824,1.542473,-1.594816,9.998409
12.119824,-2.546861,-3.108576,14.872290
12.219824,-2.964109,-8.118249,21.031416
12.319824,-0.109771,-1.470090,12.497414
12.419824,0.978365,-1.053739,5.615356
12.519824,-1.192224,3.908077,3.615256
12.619824,-1.310669,-1.620838,10.906186
12.719824,0.043071,-2.959323,7.814361
12.819824,2.906981,-5.833702,13.206287
12.919824,1.281656,-4.395017,12.589238
13.019824,-1.124926,-1.875375,13.646268
13.119824,-0.865304,-1.168894,10.712966
13.219824,-0.838385,-1.856830,9.111569
13.319824,1.448854,-1.631307,14.094025
13.419824,-0.303589,-2.142473,8.308179
13.519824,-3.142374,-2.982354,8.274081
13.619824,-2.259423,-4.686941,7.282556
13.719824,-3.047260,-0.931107,5.534300
13.819824,-1.565504,-1.531107,6.550352
13.919824,0.796212,-4.198207,11.259128
14.019824,-1.611865,-3.436392,9.894919
14.119824,0.661017,0.189631,9.980463
14.219824,0.203988,-0.576371,10.182058
14.319824,0.682254,2.935694,7.878069
14.419824,-1.957030,0.870389,9.288040
14.519824,-1.150948,0.025125,10.121939
14.619824,-1.437787,-0.092124,9.426824
14.719824,-0.260818,-0.297308,9.765109
14.819824,-0.706481,-0.063709,10.180862
14.919824,0.014656,1.980659,8.194221
15.019824,-1.182653,-0.053839,10.133903
15.119824,-0.371486,-0.087936,10.287044
15.219824,-0.072084,0.131605,9.822238
15.319824,0.510868,-0.125922,9.995419
15.419824,-0.739681,0.550349,9.655040
15.519824,-0.942174,2.148755,7.136893
15.619824,-1.314856,0.202194,9.775877
15.719824,-0.636192,-0.610768,10.615458
15.819824,-1.274178,0.593121,9.479167
15.919824,-2.146661,-0.270688,9.814461
16.019824,0.093918,-0.101396,10.408180
16.119824,-0.336192,0.195613,10.037891
16.219824,-0.171984,0.252742,9.759726
16.319824,0.048455,0.294915,9.816555
16.419824,-0.311964,0.187537,9.841380
16.519824,-0.195314,0.125623,9.849456
16.619824,0.127418,0.227318,9.914960
16.719824,-0.013759,0.192622,9.873982
16.819824,-0.119940,0.209372,9.811171
16.919824,-0.076570,0.271585,9.819247
17.019824,-0.030808,0.338285,9.832108
17.119824,-0.305384,0.012263,9.840782
17.219824,0.804886,-0.217448,9.457033
17.319824,0.923031,0.089731,10.546964
17.419824,-1.079761,0.765105,9.149555
17.519824,0.958325,1.584946,10.070493
17.619824,-0.042173,0.127717,10.984252
17.719824,-0.698106,1.754537,9.413364
17.819824,0.463609,1.784148,9.866206
17.919824,1.377069,0.440578,10.409676
18.019824,-0.350249,2.270789,9.143574
18.119824,1.085145,-0.149551,10.878669
18.219824,0.054736,2.091626,7.649854
18.319824,-2.904588,2.718246,7.430313
18.419824,0.806680,0.078365,12.552448
18.519824,3.055036,0.337986,11.885150
18.619824,2.602793,2.969792,8.541779
18.719824,-2.570789,1.834398,9.185149
18.819824,-1.672284,0.528515,11.874981
18.919824,5.397909,0.909871,13.814961
19.019824,0.850648,1.561317,9.643972
19.119824,-1.322932,1.873879,9.083454
19.219824,1.716551,-2.996711,16.421942
19.319824,0.903889,0.188136,9.981061
19.419824,0.572782,1.095614,11.129915
19.519824,-1.666302,0.736092,9.873982
19.619824,-2.521138,-3.108277,12.381063
19.719824,-0.705584,-2.633899,14.862420
19.819824,1.438685,2.717349,1.717748
19.919824,3.976572,2.451746,7.826025
20.019824,-1.173679,-2.678466,13.677075
20.119824,-4.772485,-4.547260,12.110374
20.219824,1.390828,5.854639,2.729313
20.319824,-0.825524,2.628217,7.012167
20.419824,2.377568,3.367599,8.913862
20.519824,-0.156132,-2.017748,17.159231
20.619824,1.036990,-2.085644,12.438789
20.719824,-2.130509,4.671986,4.989334
20.819824,3.608377,-5.148457,19.964516
20.919824,0.155234,-0.156730,4.261617
21.019824,-1.023231,6.732805,1.404886
21.119824,0.803689,3.141477,8.563912
21.219824,3.249154,-7.578668,21.593729
21.319824,-2.927918,-1.922334,7.811668
21.419824,-1.981556,8.093722,-5.065307
21.519824,-1.970789,2.616552,7.218249
21.619824,-0.022134,2.392524,10.486246
21.719824,0.589532,-4.919942,16.997715
21.819824,0.081356,-4.078566,9.692128
21.919824,1.005584,0.736989,7.322636
22.019824,0.099601,2.546861,4.821537
22.119824,0.858126,-1.343570,12.687943
22.219824,-0.678664,-0.048455,7.001997
22.319824,-0.741775,1.597807,6.420840
22.419824,0.840180,3.707080,6.749555
22.519824,6.305387,0.171984,13.034902
22.619824,2.645565,-2.876173,11.511571
22.719824,-2.092224,3.440281,8.883354
22.819824,1.984547,1.715953,7.635497
22.919824,2.606382,0.402892,16.136896
23.019824,2.616851,1.083051,11.324332
23.119824,-0.768694,-4.608576,15.448362
23.219824,-4.701597,4.033701,4.730909
23.319824,-0.567099,0.224327,8.455936
23.419824,1.196112,-2.674877,13.158431
23.519824,1.729113,-0.317049,11.543874
23.619824,-2.795415,0.793520,8.151151
23.719824,-3.623930,-1.478764,12.089437
23.819824,-0.298804,3.243770,4.409972
23.919824,0.150449,-8.576474,20.439192
24.019824,-0.863510,8.482257,0.129811
24.119824,-4.474279,-2.823531,10.179367
24.219824,4.998008,0.925424,11.364412
24.319824,3.957430,1.009173,10.752149
24.419824,-2.436791,-3.151946,12.615260
24.519824,2.105086,3.395415,7.449455
24.619824,-0.415155,-2.989533,8.988339
24.719824,-1.677369,-1.964208,12.596416
24.819824,0.384048,3.998407,6.483652
24.919824,-1.966302,7.820941,-0.486341
25.019824,-0.818644,-2.339881,13.852349
25.119824,-1.473680,12.262020,-3.096313
25.219824,2.812763,0.515354,12.771691
25.319824,-1.465604,-3.223132,8.470592
25.419824,1.361217,3.670291,9.016156
25.519824,-2.175375,-1.012762,12.756138
25.619824,-1.599303,1.929213,6.307480
25.719824,-0.860818,1.587638,9.277572
25.819824,2.574079,0.343071,11.413465
25.919824,1.701596,1.862214,5.341977
26.019824,-2.714657,1.829014,7.961519
26.119824,-0.669093,-0.005982,13.168302
26.219824,-0.025125,-4.274478,13.197614
26.319824,2.541776,0.688535,9.337093
26.419824,0.417847,-0.833300,11.442478
26.519824,2.574079,-0.025424,11.909677
26.619824,1.597807,-0.129212,9.868001
26.719824,-0.674776,-0.152842,10.727622
26.819824,1.036990,1.060619,9.964611
26.919824,2.929413,0.329013,10.882557
27.019824,-0.817747,-0.274277,10.222736
27.119824,0.823131,-0.186042,11.227722
27.219824,-0.455234,1.591227,7.806584
27.319824,-1.406980,-1.920240,12.282060
27.419824,-2.476571,2.167897,7.876873
27.519824,0.562912,-3.042474,12.729816
27.619824,-0.897308,0.660718,9.631111
27.719824,0.834796,3.118147,5.440979
27.819824,-0.858724,2.839981,6.295217
27.919824,0.010469,-5.212764,13.468302
28.019824,0.920938,3.376871,4.323232
28.119824,2.079064,-1.910071,13.564612
28.219824,-0.336790,-1.301695,12.865310
28.319824,-1.162014,-1.053440,10.195219
28.419824,1.304986,-0.192921,11.317452
28.519824,1.161416,0.733400,9.934402
28.619824,1.327418,0.693021,10.925329
28.719824,-0.491426,-1.004088,12.739986
28.819824,-0.907179,0.530309,9.075677
28.919824,-0.480359,2.549552,9.228518
29.019824,3.016153,0.843470,9.110074
29.119824,-2.912962,-1.064806,10.702497
29.219824,-1.175474,0.624228,8.455936
29.319824,-0.967299,-1.001097,11.267802
29.419824,-0.616750,-0.064008,10.713863
29.519824,-2.016850,1.558924,6.305985
29.619824,0.516551,1.511666,8.190034
29.719824,0.359223,-0.538086,10.988739
29.819824,-0.603889,-1.097109,10.412966
29.919824,2.216950,1.832005,8.065009
30.019824,1.894816,-2.279762,13.072887
30.119824,-0.621835,4.687540,4.077968
30.219824,-0.926920,-1.354038,13.092628
30.319824,-0.622732,0.168096,7.872685
30.419824,-0.172881,-1.834398,10.514960
30.519824,2.673082,-1.299303,10.769497
30.619824,-3.854837,0.364905,11.531910
30.719824,1.211067,-1.314856,12.517155
30.819824,3.173481,2.880360,7.745268
30.919824,2.057229,0.200100,15.189638
31.019824,-2.753541,3.470191,6.366105
31.119824,-1.286740,-2.592623,10.331909
31.219824,1.654039,1.815255,8.143971
31.319824,1.476372,0.990928,8.167003
31.419824,-0.487837,1.256232,8.266305
31.519824,-2.327618,-0.800997,11.178968
31.619824,-3.627519,1.351347,9.263215
31.719824,-0.670589,-2.201098,11.215459
31.819824,-1.415056,-0.030209,11.223834
31.919824,-0.669990,3.438187,2.963511
32.019824,1.647758,0.710369,10.009477
32.119824,-1.397109,-3.670889,15.550655
32.219824,-2.340181,-1.804786,11.030912
32.319824,-1.223929,-7.682456,15.611373
32.419824,-4.398905,2.386242,8.620144
32.519824,-2.890829,-4.665406,14.475679
32.619824,-1.293919,-6.290731,21.272791
32.719824,-4.172783,-8.490932,23.425135
32.819824,-2.626721,-3.294319,9.533304
32.919824,0.160917,3.434299,2.995814
33.019824,-1.980958,5.410770,5.299205
33.119824,-1.400399,-3.637389,14.672789
33.219824,-5.018646,-4.036393,11.921042
33.319824,1.225723,-1.313061,12.723236
33.419824,0.085244,1.809572,7.190432
33.519824,-5.487041,-2.131108,5.644968
33.619824,-2.450250,2.103889,3.154039
33.719824,1.625923,-4.063910,14.129020
33.819824,-1.663610,0.936790,8.336594
33.919824,-3.391527,-4.407280,16.665112
34.019824,-2.601596,3.385246,0.727119
34.119824,2.782254,2.397309,6.987042
34.219824,3.998407,2.664109,12.637095
34.319824,1.027418,7.491330,9.796515
34.419824,1.152742,-1.909472,15.097814
34.519824,-0.692124,0.219541,9.246465
34.619824,-2.167299,-3.053242,12.191731
34.719824,-2.779862,-3.431607,12.278172
34.819824,-2.643172,-6.361319,9.781859
34.919824,-5.037191,-1.722832,10.729117
35.019824,4.412365,4.755436,7.086943
35.119824,-0.200399,3.511467,10.183853
35.219824,1.210170,7.013961,4.381557
35.319824,-3.163013,-8.649456,18.283258
35.419824,-1.636092,1.656431,6.210571
35.519824,1.325923,-2.797210,13.646566
35.619824,-0.543769,-0.654138,10.372886
35.719824,-0.129212,1.376172,4.761119
35.819824,0.744168,-0.159422,11.190334
35.919824,2.755335,-12.433704,33.452858
36.019824,-0.430409,-1.005584,9.186345
36.119824,-0.468694,9.233304,-2.897110
36.219824,5.031807,-3.111866,18.968504
36.319824,2.469393,0.079561,9.596416
36.419824,0.868295,-9.742078,22.323540
36.519824,0.180359,6.057730,3.623631
36.619824,-2.134697,-16.361523,30.644581
36.719824,0.611964,5.281857,3.041278
36.819824,-2.966801,3.605386,2.374577
36.919824,-1.222732,-0.995115,17.237297
37.019824,1.774876,11.268998,0.238385
37.119824,-3.373581,-2.537289,11.639586
37.219824,2.483451,-0.843769,11.692528
37.319824,0.575773,-10.173684,17.999111
37.419824,1.619941,-0.384347,10.006186
37.519824,-0.513859,1.981556,9.293125
37.619824,0.034995,9.849456,-2.508875
37.719824,0.744168,-7.686345,18.338293
37.819824,7.077072,-5.067400,19.152452
37.919824,-6.498308,3.407679,-0.459422
38.019824,3.247060,0.212064,9.592826
38.119824,-0.235394,-3.805485,15.345770
38.219824,3.491726,-2.273481,15.173487
38.319824,0.702293,0.258724,5.866902
38.419824,-0.095414,-2.406581,12.460923
38.519824,-2.002493,-4.325326,19.380070
38.619824,-0.885643,-12.288640,26.128428
38.719824,1.267299,8.027022,0.151944
38.819824,1.320539,9.161221,-0.145065
38.919824,-4.521537,5.103591,9.186047
39.019824,1.153640,5.320441,-2.782853
39.119824,3.326323,-10.455439,20.900408
39.219824,-0.564706,-3.279663,23.111675
39.319824,-0.538983,14.967404,-13.717753
39.419824,3.070889,7.955537,1.196710
39.519824,0.828814,-3.003292,13.985450
39.619824,3.927519,-5.229514,16.535601
39.719824,0.780658,-4.635496,10.460224
39.819824,-2.641676,9.512965,-0.645464
39.919824,3.523132,4.084548,5.139185
40.019824,0.844966,0.354437,15.607485
40.119824,-1.451546,8.950952,0.164207
40.219824,-0.221934,-0.700200,9.995119
40.319824,-1.593620,0.290429,7.240681
40.419824,0.852443,-3.010769,15.439987
40.519824,-0.714258,6.402296,-1.784148
40.619824,-0.276072,6.574579,-2.844767
40.719824,-1.082752,-3.244069,20.343180
40.819824,-1.166800,5.672186,5.490033
40.919824,0.065504,3.292823,1.599303
41.019824,1.319044,-3.180360,13.461721
41.119824,-1.529014,3.421437,6.288039
41.219824,1.918446,1.285245,10.287642
41.319824,-3.573381,2.677568,8.351250
41.419824,-1.663311,6.780362,-4.031607
41.519824,-0.066102,-9.351450,23.667408
41.619824,-1.812264,-1.243071,10.632507
41.719824,-1.275973,0.733101,4.547559
41.819824,-4.405486,0.456730,12.613167
41.919824,-4.272983,4.703990,0.246162
42.019824,1.198505,-3.893422,12.788740
42.119824,4.008277,-5.346762,20.044676
42.219824,0.225524,-0.066401,13.574782
42.319824,-1.945963,-1.115354,9.897612
42.419824,-2.281556,-1.759024,10.291829
42.519824,-4.122833,2.463411,8.501698
42.619824,-0.388834,2.273780,8.876474
42.719824,-1.995016,-1.852045,10.657333
42.819824,-1.938186,-4.008875,11.735898
42.919824,-1.919642,6.480960,1.345963
43.019824,-1.355235,-7.399505,20.740986
43.119824,-0.135194,0.014656,7.865806
43.219824,-1.125524,-3.213860,12.454642
43.319824,0.044566,-2.652444,10.929815
43.419824,-4.000500,-3.444169,15.159728
43.519824,3.437888,5.975775,0.524626
43.619824,2.111367,3.520440,12.212967
43.719824,-0.108275,-2.576472,15.390037
43.819824,-0.459422,-4.144070,11.989238
43.919824,-4.519444,0.239282,7.549654
44.019824,1.745863,1.806282,3.367001
44.119824,3.615555,8.592028,2.047957
44.219824,-1.325026,-8.247163,17.438593
44.319824,1.007079,-9.372686,23.778975
44.419824,-2.219343,0.467498,5.571987
44.519824,3.072683,7.974979,-0.579063
44.619824,2.535196,-2.557628,10.372288
44.719824,0.476471,-1.023829,16.843378
44.819824,-2.890530,-3.270988,15.549459
44.919824,-7.852646,-0.946062,5.758029
45.019824,-3.174079,7.955238,-5.871987
45.119824,0.336192,3.725027,3.772285
45.219824,2.661417,-4.023531,16.564016
45.319824,-0.086441,-7.246364,19.805393
45.419824,-2.697608,-0.958625,9.394221
45.519824,1.760818,10.247562,-7.001100
45.619824,-1.804188,-2.752045,13.300205
45.719824,0.395115,-1.087538,11.772687
45.819824,-1.800300,-11.960225,25.552055
45.919824,-2.063810,2.248954,7.796414
46.019824,-3.033800,8.028219,-4.627420
46.119824,-2.460420,-1.044766,9.926026
46.219824,-2.115554,4.032505,7.395916
46.319824,-1.499103,1.927419,7.889435
46.419824,1.270290,-8.225627,17.808582
46.519824,-3.057728,8.089236,-5.374579
46.619824,-0.809671,3.183052,8.208878
46.719824,3.340380,0.864108,7.505686
46.819824,-2.863909,-11.871391,26.115864
46.919824,1.778465,4.298407,1.842772
47.019824,-0.786940,8.810373,-6.594320
47.119824,-0.754038,-3.210271,13.800605
47.219824,-1.602294,-7.875378,25.982763
47.319824,-0.369691,3.437888,7.051648
47.419824,4.099802,-2.837589,14.442181
47.519824,-0.736690,6.689734,-1.345664
47.619824,-1.018445,3.905984,1.908575
47.719824,1.392922,-4.821537,16.805691
47.819824,2.764607,-12.863216,28.221249
47.919824,-2.698207,1.247857,10.138689
48.019824,-3.041278,7.513762,-0.949053
48.119824,-3.441178,6.886843,-1.897508
48.219824,0.409472,3.388237,4.560122
48.319824,6.410372,-5.216353,17.951553
48.419824,-2.263909,-6.714560,22.604397
48.519824,0.629911,13.453944,-10.468300
48.619824,-1.400699,-1.306481,10.571192
48.719824,2.314159,4.022036,3.769593
48.819824,4.431807,-4.154838,14.275879
48.919824,-2.036890,-2.517249,14.944075
49.019824,-3.486343,5.798408,0.592224
49.119824,-2.685046,-0.322433,5.540581
49.219824,-2.662314,-0.049651,9.307482
49.319824,2.018346,2.684448,5.238188
49.419824,3.648755,-1.925923,15.096916
49.519824,0.733101,3.727419,10.157831
49.619824,-2.092523,2.100001,5.566902
49.719824,-2.163710,0.906581,6.168697
49.819824,-1.219442,-2.164607,13.852349
49.919824,1.914856,-6.539884,22.564018
50.019824,-1.205085,9.653843,-3.735495
50.119824,-3.588037,-8.127820,22.185953
50.219824,-2.504089,-0.016152,6.807879
50.319824,-4.121637,1.924428,5.527421
50.419824,-1.213460,4.086044,5.891428
50.519824,1.908874,4.165306,1.177568
50.619824,1.403091,-3.062514,17.325531
50.719824,-1.316352,-6.119644,16.752451
50.819824,-5.901299,1.272683,4.671388
50.919824,0.672981,6.309275,-0.674178
51.019824,3.302993,3.659523,3.890730
51.119824,-0.688236,2.000400,9.694521
51.219824,-1.266401,-5.350052,14.988940
51.319824,-3.843471,-2.493620,9.405289
51.419824,0.789033,3.983751,4.339683
51.519824,2.356930,1.699203,6.523433
51.619824,0.511466,4.306482,7.444071
51.719824,1.132702,-2.241477,10.587941
51.819824,1.303490,-7.078866,16.929520
51.919824,1.307678,6.193821,3.296711
52.019824,-0.302393,4.186841,4.306183
52.119824,0.426820,1.153939,8.389236
52.219824,0.393320,-10.615758,22.346571
52.319824,3.498905,-6.922137,22.059731
52.419824,1.750051,8.100004,1.081556
52.519824,-0.454636,-0.043968,11.355439
52.619824,-2.414358,-5.199006,13.611273
52.719824,-0.645165,-2.465205,11.640783
52.819824,1.547259,5.375177,5.759524
52.919824,1.108176,1.882852,7.903194
53.019824,0.000000,-3.986742,13.371990
53.119824,-1.468296,-7.941479,23.332115
53.219824,0.864407,5.992525,4.643870
53.319824,1.919941,2.666801,8.711370
53.419824,3.043371,-4.428217,17.803797
53.519824,-3.369094,-2.727220,4.088138
53.619824,-4.036991,7.293324,-5.541478
53.719824,-1.329811,3.188436,10.788041
53.819824,0.368794,-0.726820,11.070394
53.919824,2.982354,-2.912663,15.046967
54.019824,-0.795913,-12.865011,23.209782
54.119824,2.543271,16.600506,-12.316157
54.219824,-2.958725,-9.390333,23.065912
54.319824,0.858126,1.019043,-0.831207
54.419824,2.158924,2.812464,9.785150
54.519824,0.914956,-5.767301,15.841084
54.619824,-0.486341,9.674481,0.302094
54.719824,5.525925,-7.403393,22.539791
54.819824,-0.074776,-7.762018,15.676278
54.919824,-0.291625,-4.084847,19.145872
55.019824,1.828117,8.469994,-0.000598
55.119824,0.904188,8.519645,0.835992
55.219824,0.275773,-0.400499,10.691132
55.319824,-0.516850,-4.912166,9.490832
55.419824,0.848555,12.466307,-11.076376
55.519824,0.547657,-10.151550,22.264616
55.619824,3.928716,13.716557,-10.054641
55.719824,-1.356431,-9.579067,19.988144
55.819824,-0.780359,-4.177868,15.177375
55.919824,0.514457,9.449257,-4.474279
56.019824,-1.785345,-0.864407,9.614960
56.119824,1.287638,-11.278569,21.594625
56.219824,1.694717,2.222633,6.842576
56.319824,0.708575,-6.396613,22.882263
56.419824,-1.888535,9.564411,-3.058326
56.519824,-1.225424,-8.792726,11.808579
56.619824,-3.089433,-0.290429,8.965906
56.719824,-1.522134,6.992426,-0.280259
56.819824,3.247360,8.724232,1.411466
56.919824,3.268596,-8.830712,38.365620
57.019824,0.835693,11.903694,-7.842476
57.119824,-2.559722,0.612563,10.851451
57.219824,1.400699,-3.421437,15.227923
57.319824,0.754038,-0.014656,12.350853
57.419824,-2.490629,5.969195,1.458724
57.519824,-3.393023,4.642076,3.972385
57.619824,1.632503,-3.431906,11.587543
57.719824,-0.703789,14.513965,-14.285450
57.819824,-3.696612,6.156733,-1.052543
57.919824,1.291526,-4.479364,13.440784
58.019824,0.526720,1.433899,10.016655
58.119824,-1.448854,5.827720,-2.155036
58.219824,0.927817,7.365407,0.714856
58.319824,1.479363,-2.050649,13.071093
58.419824,3.002693,-1.777269,11.835798
58.519824,3.579663,4.545166,5.509773
58.619824,-1.048954,4.127619,6.131309
58.719824,2.048256,-1.555335,11.065907
58.819824,-0.605384,2.251048,9.539885
58.919824,2.297708,-6.002097,17.781961
59.019824,-1.283151,-0.488136,12.332009
59.119824,-1.406681,2.708675,5.437989
59.219824,-1.578067,-6.174380,15.607784
59.319824,2.376372,-7.462915,12.671790
59.419824,0.292822,3.795316,6.845866
59.519824,-1.493720,-3.117250,14.298611
59.619824,-1.108475,-6.149853,17.286947
59.719824,1.312463,-2.484946,15.361622
59.819824,-2.522932,3.383451,5.701498
59.919824,-1.009173,-3.256332,10.880164
60.019824,-0.774377,-4.553242,11.836994
60.119824,-1.070788,-2.999403,16.366009
60.219824,0.124726,6.066104,9.256635
60.319824,-1.062712,1.015155,14.395221
60.419824,-3.533601,-3.780361,14.827126
60.519824,1.528715,3.597609,6.269794
60.619824,0.612563,9.654441,-3.753441
60.719824,0.701097,-8.031509,18.754345
60.819824,0.260219,2.104787,5.809474
60.919824,3.205186,5.956932,1.522732
61.019824,1.895714,-1.701297,13.362419
61.119824,0.742373,-0.813859,10.445568
61.219824,-0.856032,-2.320141,14.054842
61.319824,0.950848,-2.507977,13.402200
61.419824,0.519841,-0.315254,13.254144
61.519824,0.862313,0.732204,12.016457
61.619824,0.480658,-2.328516,14.254642
61.719824,-5.677869,-1.502992,10.304690
61.819824,-1.788336,-0.255135,11.366207
61.919824,1.352543,4.672285,3.519842
62.019824,0.099601,-0.671785,9.299706
62.119824,1.021137,-5.352146,15.208182
62.219824,7.354640,9.181260,-1.966003
62.319824,-0.229412,-5.924330,21.762423
62.419824,-0.815055,-2.375475,11.150254
62.519824,-1.051047,-1.629512,15.699010
62.619824,0.694218,2.355435,5.712864
62.719824,1.382752,-1.077667,8.547162
62.819824,-1.806581,-9.824033,20.353649
62.919824,-0.946361,11.312069,-9.716953
63.019824,-0.489332,-0.335593,12.226726
63.119824,-1.399801,1.192822,5.614459
63.219824,-4.520341,3.038885,5.198407
63.319824,-0.224028,-2.604288,17.283358
63.419824,3.143571,8.521440,0.637986
63.519824,-1.574477,-7.295417,18.472292
63.619824,3.001796,-5.961718,17.784056
63.719824,-1.346860,15.589239,-12.750155
63.819824,0.509970,-1.630709,11.452647
63.919824,-0.429811,-1.790130,13.479368
64.019824,0.515952,-7.735696,19.727028
64.119824,-1.230808,-4.348058,23.733212
64.219824,2.079064,4.756931,10.198210
64.319824,-5.474778,4.443172,5.199006
64.419824,-2.197808,-9.387642,19.341784
64.519824,-0.595813,3.783053,2.629114
64.619824,2.483152,4.849354,1.681855
64.719824,0.505783,-11.754742,26.091936
64.819824,1.354038,3.492026,5.411368
64.919824,-0.751346,5.551349,10.941181
65.019824,-1.706083,4.195216,5.352744
65.119824,-1.764707,4.524529,2.148456
65.219824,5.427520,0.562612,7.720741
65.319824,5.016253,7.903493,-0.305683
65.419824,3.236592,3.490829,8.097610
65.519824,5.361418,-1.791925,19.739292
65.619824,4.249952,-5.764010,19.803000
65.719824,1.479961,-2.430809,14.631513
65.819824,1.133600,6.542276,7.259824
65.919824,0.649352,-2.019542,9.473484
66.019824,1.210170,-7.822735,19.166809
66.119824,-1.662413,7.277172,-0.466002
66.219824,2.252543,-0.177069,13.312469
66.319824,-0.980758,2.338386,7.474281
66.419824,-1.602593,-0.966401,7.460223
66.519824,1.670788,-9.201899,24.146572
66.619824,1.234996,4.730311,6.422336
66.719824,-1.188635,4.059723,3.370291
66.819824,-3.096612,-5.532206,16.741385
66.919824,6.808178,-2.449353,15.310775
67.019824,1.491327,-2.510968,13.156636
67.119824,-1.066302,-0.027218,11.076077
67.219824,-2.753840,-5.804988,14.326727
67.319824,-0.488435,-1.546661,5.868697
67.419824,-2.460719,-1.262513,10.596017
67.519824,1.122234,2.145764,6.067899
67.619824,0.940978,-2.545664,20.928823
67.719824,0.487238,0.744467,10.933405
67.819824,-5.685646,4.830212,1.189233
67.919824,-0.057428,-6.035297,13.453047
68.019824,0.734297,3.757330,5.459524
68.119824,3.404987,0.888036,5.966803
68.219824,-1.424328,-5.117051,18.461823
68.319824,2.507678,0.383749,11.409278
68.419824,-1.205983,-0.528216,6.079564
68.519824,-5.015356,6.677770,6.894021
68.619824,-4.752445,19.572092,-14.712869
68.719824,1.517050,-17.965014,33.853653
68.819824,-0.880559,24.499811,-33.461830
68.919824,1.448256,-1.314258,18.541086
69.019824,0.503390,-5.736194,15.001204
69.119824,1.738984,-5.042275,21.283859
69.219824,-6.259624,9.552746,-1.297209
69.319824,-5.245367,6.485147,7.181459
69.419824,2.125425,-8.512167,19.272392
69.519824,-0.143569,-8.280064,21.765413
69.619824,-1.344766,11.204691,-4.227818
69.719824,1.299602,2.635694,5.331508
69.819824,-2.782554,-4.319045,14.061123
69.919824,-1.537688,-5.691030,17.079668
70.019824,4.544269,-6.483054,22.689642
70.119824,5.520541,3.322135,9.519247
70.219824,-8.271688,-4.146462,6.367899
70.319824,3.904788,-5.006084,15.622141
70.419824,-1.406082,21.029621,-30.701111
70.519824,3.400500,-6.167201,26.015665
70.619824,5.967700,2.346163,7.678568
70.719824,1.292124,-2.217548,6.934400
70.819824,1.010070,-2.158027,15.479170
70.919824,2.543571,5.734100,0.737288
71.019824,1.098306,1.888535,9.592228
71.119824,-2.846262,-1.013659,9.975378
71.219824,0.449552,-13.655839,24.863522
71.319824,1.337887,2.405684,5.850152
71.419824,-0.470190,10.370194,-4.726124
71.519824,0.364008,-6.796514,19.852652
71.619824,-1.194018,-4.220341,13.022638
71.719824,-3.200999,-5.412266,17.980268
71.819824,1.828715,7.075876,4.564010
71.919824,-2.524428,0.920339,6.513862
72.019824,0.227916,-4.258626,12.140883
72.119824,3.956233,0.508774,9.746864
72.219824,3.082255,9.195019,-1.877169
72.319824,-0.153440,-3.444169,14.856737
72.419824,-0.374477,-2.993122,11.979069
72.519824,5.478966,6.514759,1.494916
72.619824,3.464807,0.071785,10.775478
72.719824,-1.038186,-5.585745,15.011971
72.819824,-3.521039,-5.159524,18.051455
72.919824,-0.214457,10.135697,-2.223830
73.019824,-3.243172,1.271187,6.186344
73.119824,-0.491725,-6.920641,17.359329
73.219824,-2.940779,0.694816,9.561719
73.319824,0.278166,7.080960,1.623231
73.419824,-1.590330,6.490232,3.654438
73.519824,3.686442,-7.560422,20.479271
73.619824,-1.609771,-6.260222,16.899012
73.719824,-0.380758,7.591828,-2.807080
73.819824,-1.100100,3.500700,4.881358
73.919824,0.785145,-0.251545,4.797908
74.019824,-4.128816,-1.465604,11.768201
74.119824,0.998106,-21.804895,44.971008
74.219824,-2.635993,3.993322,5.657530
74.319824,-3.250350,-4.486542,13.079767
74.419824,0.841675,-8.460722,17.395222
74.519824,0.834198,10.307083,-7.095915
74.619824,-1.131207,4.140182,4.266702
74.719824,0.050249,3.005983,7.770093
74.819824,-2.009971,-1.526023,8.601599
74.919824,-0.346959,-5.892326,20.117956
75.019824,1.504487,8.036893,-3.362514
75.119824,-0.986441,-4.166203,13.782061
75.219824,1.575375,-9.200702,14.939589
75.319824,2.120938,7.496115,1.357927
75.419824,8.285747,7.391130,4.006183
75.519824,0.006879,1.735993,8.825927
75.619824,-0.687936,-8.452945,16.633108
75.719824,2.851048,-2.575275,16.278971
75.819824,-0.057428,8.164310,2.404787
75.919824,-2.619243,3.299403,10.909776
76.019824,-0.047258,0.629611,9.558728
76.119824,-0.410668,-31.043583,51.855160
76.219824,-3.465704,19.960926,-19.023239
76.319824,2.259124,-17.572889,30.946075
76.419824,2.501098,-1.859821,1.365404
76.519824,0.644866,3.553042,3.513561
76.619824,1.410868,-3.300301,11.957233
76.719824,-3.069393,-0.833899,8.586046
76.819824,1.933401,-5.052744,14.523237
76.919824,-0.827019,6.461818,2.182553
77.019824,-0.863510,15.746867,-2.079961
77.119824,1.276272,-4.584349,17.441584
77.219824,0.875474,3.161816,4.600501
77.319824,-2.971587,4.072285,12.071192
77.419824,2.143670,1.387837,7.039385
77.519824,0.564706,-8.114959,24.389442
77.619824,1.328316,8.600702,-3.599703
77.719824,-4.097709,3.222235,6.702595
77.819824,0.590429,-3.862016,11.791232
77.919824,2.136492,-4.242475,17.620747
78.019824,-0.774975,1.975873,7.596913
78.119824,-5.081159,3.379862,10.985449
78.219824,2.474777,-6.382256,13.463815
78.319824,-3.436692,4.890630,2.996711
78.419824,3.309872,3.371786,5.511269
78.519824,1.427618,-4.750351,17.424236
78.619824,1.972583,-4.315156,15.285052
78.719824,-1.075574,0.719641,7.852945
78.819824,2.121536,-9.587741,24.561428
78.919824,-1.201197,1.053141,7.713264
79.019824,-2.899802,-5.952446,18.927826
79.119824,3.597310,4.596911,0.633500
79.219824,2.811268,2.941676,12.782758
79.319824,-0.219541,-6.588039,16.739290
79.419824,-0.856930,3.958626,4.145266
79.519824,2.114956,-1.877768,14.501701
79.619824,-3.199204,4.703990,1.013659
79.719824,-2.586641,-4.785346,15.093028
79.819824,-0.321236,0.670589,10.037891
79.919824,3.528217,10.473085,-3.454040
80.019824,-0.841974,-1.362413,12.315858
80.119824,-0.053240,-7.379166,19.969900
80.219824,0.860818,0.991825,9.725926
80.319824,-0.374178,7.392625,0.279362
80.419824,-0.668196,-6.032306,13.965111
80.519824,1.395913,0.291027,10.127921
80.619824,3.198606,12.629617,-6.650551
80.719824,0.495314,1.116850,7.927122
80.819824,0.490529,-5.467899,17.188244
80.919824,-1.016052,0.464507,7.104888
81.019824,-6.609873,8.312965,-10.304990
81.119824,1.114158,-0.337388,12.246167
81.219824,-0.588634,0.160618,10.680962
81.319824,2.323132,-2.161616,15.785750
81.419824,-1.610370,-4.054937,24.414268
81.519824,2.324926,6.479764,6.381359
81.619824,-3.395116,2.561816,4.799404
81.719824,-0.216550,-9.834202,19.105194
81.819824,-0.238086,8.994620,3.215056
81.919824,1.752743,6.518647,0.364307
82.019824,-3.543770,-1.491327,13.345669
82.119824,-1.234397,-2.194817,11.236396
82.219824,-1.630709,-1.208974,15.065211
82.319824,1.724029,9.316754,-3.151347
82.419824,0.079860,-1.619642,11.732906
82.519824,2.783750,-14.885750,26.561228
82.619824,-1.550848,5.170890,6.170192
82.719824,0.543470,10.619347,-4.352245
82.819824,0.046959,-5.234000,16.366907
82.919824,-0.451645,-2.131706,8.286046
83.019824,1.619642,-0.074477,10.048958
83.119824,0.118445,-1.079163,15.771393
83.219824,-1.131207,-1.656431,17.167307
83.319824,-2.370689,-1.385145,12.602697
83.419824,2.470589,-4.476074,17.330317
83.519824,1.585843,7.232904,0.623031
83.619824,-3.012863,4.559524,5.275875
83.719824,0.839283,-5.451448,17.534903
83.819824,0.115155,-0.924527,10.817054
83.919824,-2.357528,3.438785,7.483253
84.019824,3.101397,9.358030,0.756730
84.119824,3.584448,2.119742,6.494420
84.219824,0.371486,-9.201599,21.649063
84.319824,1.362114,4.790730,2.076372
84.419824,1.756332,3.385246,11.073684
84.519824,1.398306,-0.256630,6.742675
84.619824,-0.337388,3.069393,5.994021
84.719824,-0.489930,-1.335793,9.555139
84.819824,3.190829,0.868595,12.145070
84.919824,1.975873,-11.185847,23.924040
85.019824,3.796811,3.161517,6.024529
85.119824,-0.049950,9.806984,-2.734398
85.219824,1.187737,-3.073880,7.696813
85.319824,-5.000401,8.220243,-2.566601
85.419824,2.828316,-1.132702,9.663116
85.519824,0.095414,-20.891436,28.849964
85.619824,-1.168894,4.309772,-0.696012
85.719824,-1.117448,0.306879,24.473789
85.819824,-3.693322,7.406683,-2.554039
85.919824,-2.201696,1.215554,7.232904
86.019824,-1.061815,6.407979,2.566900
86.119824,4.074379,-1.598705,9.972687
86.219824,-2.235195,-1.370190,15.778273
86.319824,6.280262,2.619243,6.414260
86.419824,-0.677468,-3.093621,14.172389
86.519824,1.196710,1.797907,8.351549
86.619824,-5.575277,-2.785844,12.990933
86.719824,-6.055337,17.887844,-13.207185
86.819824,-0.761217,5.574080,5.846264
86.919824,0.139083,5.297111,-6.984051
87.019824,6.520741,3.149553,0.591027
87.119824,0.034995,-5.232505,20.019251
87.219824,-1.931905,-10.756635,21.848564
87.319824,5.242375,-3.441776,14.825929
87.419824,-0.515354,5.330312,5.261817
87.519824,0.533599,12.628121,-14.277076
87.619824,1.034298,-5.147560,14.951552
87.719824,-1.584946,-3.972983,16.666609
87.819824,1.976472,-8.452646,23.312075
87.919824,-3.719045,0.423530,11.856137
88.019824,-2.097608,1.364806,6.848856
88.119824,-0.587139,-6.833602,13.169199
88.219824,-0.031107,0.660718,9.592228
88.319824,-1.087837,7.702795,1.045663
88.419824,-1.165903,14.513367,-5.412565
88.519824,-0.724128,-3.488436,12.043077
88.619824,0.841974,-6.402296,21.364616
88.719824,2.358127,4.616054,5.916254
88.819824,2.546861,1.121037,12.448959
88.919824,-0.874278,4.703392,2.099702
89.019824,0.375673,0.363709,5.676672
89.119824,2.858526,-3.277569,15.045172
89.219824,-0.749552,-2.050649,14.045569
89.319824,-1.472184,3.546761,14.336896
89.419824,1.274178,-0.830908,10.913664
89.519824,-1.314258,-8.241479,17.265711
89.619824,-0.400499,7.806584,-1.664806
89.719824,-1.504786,3.419343,8.558528
89.819824,5.499005,-0.216251,13.077673
89.919824,-0.428614,-1.400699,9.505787
90.019824,-1.636990,-8.449057,23.449064
90.119824,1.936093,7.208976,-1.541875
90.219824,3.393023,7.849655,2.842374
90.319824,2.137987,-8.530113,24.094229
90.419824,0.842573,-1.343869,9.094221
90.519824,-0.647259,0.118445,9.993324
90.619824,1.008874,2.088934,10.949856
90.719824,2.435594,-1.559223,10.974681
90.819824,-0.976571,0.302692,10.244272
90.919824,1.412364,5.049454,4.231408
91.019824,2.637788,-4.374678,19.060926
91.119824,-0.515055,0.107378,10.618449
91.219824,0.040080,6.961917,-3.190231
91.319824,0.661615,-2.064408,3.955336
91.419824,0.205185,1.919642,7.334899
91.519824,1.402194,-8.804091,25.295725
91.619824,-6.831808,-6.475277,17.112869
91.719824,0.009571,9.832407,-8.015059
91.819824,-2.073680,-1.947459,11.291132
91.919824,-3.330809,-3.136392,13.647763
92.019824,2.453541,-9.677772,29.382965
92.119824,4.270889,18.195322,-15.065809
92.219824,2.612962,-10.223036,25.975286
92.319824,-0.705284,4.369892,7.342077
92.419824,0.172283,-7.089335,14.387743
92.519824,2.052743,-5.018347,21.351456
92.619824,2.707180,7.890034,-2.867200
92.719824,0.293121,1.314557,11.516954
92.819824,-1.552643,2.608177,7.475178
92.919824,2.737688,-5.229215,15.286846
93.019824,2.700599,-3.194418,15.687943
93.119824,4.235595,-2.147558,13.555340
93.219824,-1.715654,12.053844,-3.135794
93.319824,6.682256,-8.417950,24.447470
93.419824,0.360120,-6.718747,17.693129
93.519824,-2.487339,-2.855834,8.414959
93.619824,-0.088534,5.976075,1.551446
93.719824,-1.865803,3.319742,6.290133
93.819824,2.921936,-1.680360,20.814865
93.919824,-0.041874,3.545266,3.659224
94.019824,-0.042772,-8.248359,16.170696
94.119824,5.640780,-0.338884,12.938890
94.219824,-0.194417,-1.041775,10.354342
94.319824,0.653241,10.892727,-4.949553
94.419824,-0.422632,-0.450748,8.969196
94.519824,-0.259322,-6.647860,22.784458
94.619824,-0.530010,-4.686343,8.016853
94.719824,-1.880160,10.165907,-12.714861
94.819824,1.121935,-0.667897,9.456435
94.919824,2.186143,-12.401701,32.389545
95.019824,0.912862,-4.348058,14.047364
95.119824,2.256432,1.113261,12.023635
95.219824,1.456631,1.831107,13.891532
95.319824,0.434596,3.852744,2.280061
95.419824,0.773181,1.525424,12.012568
95.519824,-0.789332,2.648257,4.842475
95.619824,0.285045,-7.923533,18.279669
95.719824,-1.261317,-3.437290,15.051153
95.819824,0.995713,8.513364,-2.520540
95.919824,2.322533,5.612964,2.899802
96.019824,1.240080,1.431506,12.627224
96.119824,-1.354936,0.849751,10.243673
96.219824,-1.719243,-0.655334,10.567902
96.319824,-0.683450,-2.541477,14.532210
96.419824,0.196810,7.427620,1.108475
96.519824,-0.294616,-1.380060,13.814662
96.619824,3.302095,7.884351,2.321337
96.719824,0.640379,-16.761423,32.937801
96.819824,-5.817251,-15.599110,26.930023
96.919824,3.099603,10.008280,-12.100803
97.019824,-0.686142,-1.085444,9.302996
97.119824,-2.414059,0.549751,5.639584
97.219824,0.387039,-3.461218,9.903295
97.319824,-2.053640,-2.312065,13.999208
97.419824,-1.735395,5.745765,2.059622
97.519824,1.912464,5.359923,4.409075
97.619824,-1.123430,1.471586,9.892527
97.719824,1.770689,-6.062814,18.594923
97.819824,0.026620,-3.472584,10.408778
97.919824,-2.619842,3.586841,5.209474
98.019824,1.881058,6.992426,5.054539
98.119824,2.508875,12.049058,-0.054736
98.219824,0.884148,-11.371890,22.604696
98.319824,-0.031705,-2.649154,12.582358
98.419824,-1.190130,3.614957,6.486344
98.519824,1.708774,-3.742973,19.845173
98.619824,-1.546661,-1.003789,16.267305
98.719824,-3.517748,-2.395814,9.568299
98.819824,0.590728,1.567897,8.472985
98.919824,3.259324,-0.254237,11.219646
99.019824,-1.631606,-1.644766,16.290037
99.119824,2.844468,4.555336,4.302594
99.219824,-0.244068,2.123331,11.374283
99.319824,0.870688,8.958130,0.894018
99.419824,-1.010070,-4.657031,16.463516
99.519824,-2.304587,1.041476,5.382655
99.619824,-2.676671,-6.634400,14.213964
99.719824,2.313560,4.353741,6.380162
99.819824,-0.846461,-3.017648,15.691832
99.919824,-3.718147,6.514161,6.993323
100.019824,-7.590333,12.321840,-11.066505
100.119824,-4.555934,-5.935995,18.713966
100.219824,2.474478,-0.881456,9.882956
100.319824,2.557628,-9.625728,27.085556
100.419824,-1.115354,2.678765,10.575378
100.519824,-0.712164,4.671388,1.957927
100.619824,0.226720,6.740582,-0.026321
100.719824,3.162713,-13.281363,31.986057
100.819824,-0.461217,5.453542,1.550549
100.919824,-3.013760,-5.360521,9.533006
101.019824,-3.596113,2.114956,8.793623
101.119824,-0.107677,-2.957828,13.918451
101.219824,2.440081,3.651747,3.836592
101.319824,0.164806,6.031109,3.117250
101.419824,-0.290429,-0.529113,13.805690
101.519824,1.888535,-4.918447,14.695819
101.619824,0.655334,-1.152742,15.157933
101.719824,2.266003,3.817449,1.491925
101.819824,1.860121,-0.578764,12.325728
101.919824,0.384347,3.701996,5.675776
102.019824,-1.549951,-4.172484,11.992827
102.119824,0.673879,-12.681362,22.172493
102.219824,5.279464,5.521139,5.456533
102.319824,-0.436690,-2.822035,16.007086
102.419824,-5.364110,15.085850,-8.221141
102.519824,5.265705,-8.396714,13.420744
102.619824,1.140778,-1.482952,4.968098
102.719824,4.539783,-3.535096,12.673585
102.819824,0.180957,-5.620740,18.694824
102.919824,-1.584348,2.504388,7.397411
103.019824,1.240978,-2.084747,16.351952
103.119824,0.137288,6.900601,-1.394417
103.219824,-1.383650,-1.858326,12.595519
103.319824,2.478964,-4.555336,16.325930
103.419824,-1.632204,-6.010770,20.580668
103.519824,-1.079462,12.093625,-7.905886
103.619824,0.558724,-0.056530,10.429117
103.719824,-3.329912,15.487246,-15.495919
103.819824,1.948954,1.005883,7.657930
103.919824,1.247259,-7.172785,16.309778
104.019824,-0.262612,-4.055834,16.049858
104.119824,1.161715,3.214757,6.743273
104.219824,-3.587140,-3.745366,17.121244
104.319824,-0.760020,8.522636,-4.150949
104.419824,2.919543,2.206482,6.263512
104.519824,-0.766900,-0.230608,11.700006
104.619824,0.752543,-9.533604,20.693130
104.719824,-1.730310,1.998605,9.662218
104.819824,-2.467598,-9.827024,22.028326
104.919824,3.882355,12.356237,-0.767498
105.019824,0.238385,0.344267,9.183354
105.119824,1.430011,-1.402493,15.897017
105.219824,2.997908,-0.294018,11.106885
105.319824,-1.595415,-5.648557,14.718552
105.419824,-2.937788,-5.325227,18.019152
105.519824,1.030708,4.099504,0.821037
105.619824,1.509273,6.545866,9.427423
105.719824,3.778566,3.786044,7.951649
105.819824,0.465404,-1.546661,11.708679
105.919824,0.776471,-6.359824,19.320547
106.019824,0.866202,3.273680,4.467699
106.119824,-0.444168,-0.178863,9.128320
106.219824,0.984048,7.054041,3.766004
106.319824,1.144667,-2.626721,13.262817
106.419824,2.580958,0.956830,8.905787
106.519824,3.846761,-11.373684,29.760731
106.619824,0.369691,8.854640,-3.897908
106.719824,1.304387,-3.713063,12.252748
106.819824,0.557827,-2.898905,11.033903
106.919824,1.168296,1.675873,9.658628
107.019824,1.183849,-2.904289,11.327024
107.119824,1.797309,-3.982554,19.777277
107.219824,1.863411,15.896119,-12.683156
107.319824,1.438385,-13.980964,28.295727
107.419824,2.585445,10.179367,-0.563510
107.519824,-0.230010,2.373082,6.589235
107.619824,-0.559023,9.989138,-0.620040
107.719824,-1.366601,-0.516850,11.489437
107.819824,-1.159024,1.311865,9.009576
107.919824,6.485746,-23.693430,38.119759
108.019824,-1.645963,6.147759,2.696113
108.119824,-2.732604,2.734099,7.371389
108.219824,-0.594616,-8.376076,22.066610
108.319824,1.263111,-5.042874,20.401205
108.419824,0.926621,2.673381,7.584949
108.519824,0.070289,12.635300,-8.564810
108.619824,4.418945,7.718947,-1.931606
108.719824,0.881755,-7.206285,21.077179
108.819824,2.847459,4.927121,5.263612
108.919824,0.773480,-2.816053,14.422140
109.019824,1.761716,-0.916750,11.128120
109.119824,3.095714,-8.392227,21.342184
109.219824,-0.324826,4.727320,2.884248
109.319824,-3.474079,1.637887,5.806184
109.419824,-3.462414,5.305486,4.210471
109.519824,-1.702194,0.857229,9.111869
109.619824,1.362713,-1.833201,12.777673
109.719824,0.538086,1.695016,4.788935
109.819824,-0.752842,-4.566403,17.429319
109.919824,2.990729,-4.586742,19.092630
110.019824,-0.916750,25.879574,-29.120352
110.119824,-1.086042,-14.086547,28.074390
110.219824,2.804388,3.217449,1.785644
110.319824,1.869393,-4.116253,13.766208
110.419824,-1.581955,1.510170,7.039086
110.519824,-3.795914,2.214258,2.305485
110.619824,-3.933202,0.713061,8.462217
110.719824,0.334995,2.934199,9.442377
110.819824,-0.109771,2.030908,6.740582
110.919824,-1.250549,3.559623,5.297111
111.019824,0.772882,-3.597310,12.580863
111.119824,-1.333699,4.546064,0.854836
111.219824,1.969293,1.274178,7.788937
111.319824,0.538385,-1.898705,13.239188
111.419824,2.190330,0.359522,10.051650
111.519824,0.658325,1.024128,6.794121
111.619824,-0.701695,6.626922,2.153241
111.719824,-1.806880,-4.495216,16.783258
111.819824,-1.418645,2.730809,5.371887
111.919824,0.681057,0.439083,8.346166
112.019824,1.693520,-4.480261,19.022043
112.119824,2.380858,2.797808,4.221238
112.219824,2.416452,-0.670289,12.306885
112.319824,0.150150,-3.196512,15.824036
112.419824,2.702394,0.901795,8.817850
112.519824,-1.729113,1.778166,7.571489
112.619824,-6.011369,-2.948256,16.589739
112.719824,-1.090230,14.881263,-12.106486
112.819824,-0.214756,-0.193220,10.415658
112.919824,2.247758,-7.603194,19.250257
113.019824,-2.035694,0.183948,9.410972
113.119824,0.068495,-5.558826,15.487246
113.219824,2.701198,0.144766,11.370993
113.319824,2.342274,-10.748261,29.248667
113.419824,-1.494617,2.070091,5.673981
113.519824,-1.834697,4.088138,8.273783
113.619824,1.551746,3.002095,3.202195
113.719824,-0.845564,-2.662015,11.253146
113.819824,1.913660,-1.721038,11.869596
113.919824,0.403789,0.321236,10.555339
114.019824,-0.319442,0.278166,10.454841
114.119824,0.980758,3.694518,7.448259
114.219824,2.917748,1.482054,10.315758
114.319824,-0.151944,0.355035,10.060324
114.419824,0.338884,-1.947459,12.229716
114.519824,-2.273481,-1.105484,10.808679
114.619824,-1.358824,0.947857,7.636992
114.719824,-4.186543,-4.494020,16.560726
114.819824,-0.040080,11.714960,-10.004690
114.919824,-0.899701,-0.147757,9.804292
115.019824,-0.237787,1.960918,10.772488
115.119824,-0.706780,-0.554537,7.026524
115.219824,0.418445,-3.575475,12.554841
115.319824,0.760619,-1.516750,10.482956
115.419824,0.289532,0.716351,13.123137
115.519824,0.124128,1.040579,7.567002
115.619824,-0.642772,1.037887,7.925926
115.719824,2.512763,2.748157,8.991630
115.819824,0.573380,-5.499903,18.171694
115.919824,-2.354238,5.038985,-0.972084
116.019824,-0.711865,0.802792,9.112467
116.119824,3.338586,2.570490,7.954340
116.219824,-0.446261,-10.111470,26.676682
116.319824,0.084646,4.250550,2.483750
116.419824,-0.232104,4.962415,6.419943
116.519824,-0.792623,-0.661615,6.594619
116.619824,1.643869,-2.307279,13.912469
116.719824,0.364905,1.863111,8.014161
116.819824,1.682453,-0.664008,11.423335
116.919824,-1.577767,-0.635294,9.466306
117.019824,-0.329312,2.821138,5.762814
117.119824,-1.719542,-6.452845,16.575083
117.219824,2.257030,0.940978,10.011271
117.319824,-0.611964,0.576371,10.456934
117.419824,-0.593719,-7.800901,18.796221
117.519824,-3.594319,8.774779,-1.261616
117.619824,1.932503,-13.113266,32.846275
117.719824,-0.510868,9.550353,-6.375975
117.819824,-1.127020,2.158625,5.872585
117.919824,-1.323829,-1.212563,11.553146
118.019824,0.191426,6.416653,2.308775
118.119824,2.301297,5.057230,2.506781
118.219824,0.251545,-3.825824,15.536299
118.319824,1.526322,4.753941,5.123631
118.419824,0.860519,-0.071486,8.600103
118.519824,1.972882,-3.227619,14.765809
118.619824,2.898606,-0.737288,12.136994
118.719824,-0.521934,4.494618,3.899703
118.819824,0.673879,-8.794520,19.701605
118.919824,-1.824826,3.022733,5.516055
119.019824,-0.574277,-4.260122,15.060725
119.119824,2.403590,-0.424128,1.890031
119.219824,-4.014857,4.139284,5.402994
119.319824,-1.507179,-3.526721,17.338692
119.419824,-0.926920,0.767199,10.217053
119.519824,0.202194,1.557428,7.973483
119.619824,-0.444168,-13.180565,29.065018
119.719824,2.102693,9.641280,1.755734
119.819824,0.439980,-11.415259,28.843981
119.919824,2.112264,13.493127,-17.775383
120.019824,0.813261,1.887638,6.092725
120.119824,2.634498,-6.621539,19.313070
120.219824,1.554437,2.782554,9.558728
120.319824,-4.197908,8.477173,-1.725225
120.419824,-2.194817,-8.717052,20.073389
120.519824,-0.827917,-4.360919,15.826727
120.619824,-0.716052,10.153644,-1.942972
120.719824,0.124128,-5.588138,18.142382
120.819824,-2.848356,3.026322,5.679065
120.919824,1.395614,-1.694417,12.923336
121.019824,-0.591027,3.144169,5.269893
121.119824,2.796612,0.952343,9.761520
121.219824,3.929314,-1.523630,12.625729
121.319824,0.937986,2.068595,7.660024
121.419824,0.599103,-3.885346,15.576677
121.519824,-0.282652,-0.593719,7.941778
121.619824,-0.053240,0.608076,8.995817
121.719824,1.140778,0.341875,11.464911
121.819824,-0.681655,2.443371,5.843871
121.919824,-3.339782,-15.508482,29.880972
122.019824,-2.435894,-3.291029,14.550455
122.119824,-0.986441,8.287242,-3.717549
122.219824,2.603092,3.762714,5.266603
122.319824,-1.500300,0.163908,6.103193
122.419824,-0.258126,0.203390,9.954441
122.519824,-0.506979,3.839583,4.772784
122.619824,-0.638585,-0.690329,9.567701
122.719824,2.039582,5.586044,0.524626
122.819824,2.743670,-3.373880,16.545771
122.919824,-0.642174,2.982653,6.891030
123.019824,-0.357727,-2.356033,12.323934
123.119824,-0.196511,3.420241,8.320144
123.219824,-0.401396,-0.368495,8.923434
123.319824,1.285544,1.983949,8.133503
123.419824,-2.165804,-0.229412,12.145669
123.519824,1.026521,-3.242873,13.371392
123.619824,0.944866,-1.683650,12.013465
123.719824,-0.154337,2.760420,8.902496
123.819824,-0.439382,-5.766104,20.935404
123.919824,-1.646262,3.687639,2.100001
124.019824,1.714158,-3.049952,12.454343
124.119824,-1.166800,13.303795,-14.666208
124.219824,2.827718,-0.089133,10.258629
124.319824,0.197707,-4.731508,18.475283
124.419824,-1.507478,-2.472085,12.962519
124.519824,-1.240379,0.929013,7.722237
124.619824,1.178166,2.235794,6.325128
124.719824,3.668496,-2.271985,13.615759
124.819824,2.018944,6.431309,2.582454
124.919824,-0.999303,-5.408078,16.012171
125.019824,0.215354,0.970888,7.265208
125.119824,0.972084,-2.122135,9.655638
125.219824,2.170589,0.116351,11.893525
125.319824,1.369293,0.239880,9.010472
125.419824,-0.020937,2.637190,6.125626
125.519824,2.615953,-3.260520,12.074183
125.619824,1.422533,0.256630,5.901299
125.719824,0.171386,-0.087936,9.346664
125.819824,0.749552,-1.127020,11.358430
125.919824,2.188236,-3.954139,13.638790
126.019824,-3.369393,-5.614160,13.143177
126.119824,-0.169890,-4.371687,13.283456
126.219824,0.494118,-1.439881,7.968698
126.319824,-0.979861,-1.629213,8.516953
126.419824,-0.241376,-2.723630,9.696914
126.519824,-1.802693,-2.262414,8.577971
126.619824,-1.101596,0.454038,5.620441
126.719824,-0.757029,-2.108376,9.919446
126.819824,-0.110070,-3.196213,9.183653
126.919824,1.436591,-2.306980,11.396117
127.019824,-1.440778,-5.569594,12.504292
127.119824,1.144367,-2.575275,9.264112
127.219824,-0.717847,-3.077469,9.046964
127.319824,0.432503,-0.430110,10.478768
127.419824,-1.224527,0.038285,9.998409
127.519824,0.756431,2.042872,11.373983
127.619824,-0.890130,-0.722932,10.927722
127.719824,-0.267398,0.277268,9.222238
127.819824,-0.891925,0.990329,9.194421
127.919824,-0.302692,-0.978964,10.136595
128.019824,-0.344866,0.090628,9.992726
128.119824,-0.577268,0.254836,9.994521
128.219824,0.294616,-0.229113,9.897313
128.319824,1.512862,-0.025424,10.227522
128.419824,-0.008076,-0.272483,10.165907
128.519824,-2.561517,-0.563510,10.280763
128.619824,-0.261117,2.336890,8.838489
128.719824,-0.261715,-0.621536,9.337093
128.819824,0.468096,0.773779,9.236894
128.919824,-0.703490,0.686441,10.876276
129.019824,-1.431805,0.481556,10.020843
129.119824,-0.078365,1.218545,10.441978
129.219824,-1.028615,0.663111,9.402596
129.319824,-0.776770,1.872384,9.093025
129.419824,0.154337,1.159024,8.680861
129.519824,-1.250848,-0.170489,10.262517
129.619824,-1.339083,0.576670,10.546366
129.719824,1.858625,0.625424,10.829915
129.819824,0.377169,2.205285,9.905089
129.919824,0.538385,1.095913,10.941780
130.019824,0.908076,-0.000299,9.342477
130.119824,-0.447757,2.114059,10.282557
130.219824,-0.466301,2.001895,9.743275
130.319824,3.911368,-0.170489,11.130813
130.419824,-2.102095,4.082455,6.332306
130.519824,-0.714557,-0.940379,10.824232
130.619824,0.922732,2.460121,7.873583
130.719824,1.024128,-1.019342,9.797711
130.819824,0.695115,0.624228,8.282157
130.919824,-4.175177,-1.999203,12.027523
131.019824,2.196312,-0.925125,12.018250
131.119824,1.214058,4.409972,6.145666
131.219824,0.347258,-2.892324,13.757235
131.319824,-0.101695,-2.398805,12.962817
131.419824,-1.342972,-10.120743,16.942680
131.519824,-3.680759,-0.917348,9.495019
131.619824,1.298705,-1.662114,9.392128
131.719824,-3.770789,0.135793,9.518948
131.819824,-1.244268,-2.424528,10.895419
131.919824,-3.922435,-8.063214,15.359828
132.019824,0.793819,-1.088136,8.343174
132.119824,1.902294,-11.473884,26.727829
132.219824,-7.087840,5.829215,7.108777
132.319824,-1.147658,6.613163,-2.916552
132.419824,1.529313,-6.701997,21.177977
132.519824,-9.568898,15.326328,-13.548461
132.619824,1.111167,-4.576273,14.983557
132.719824,0.490230,-0.998106,13.249358
132.819824,-1.700101,3.971487,9.499207
132.919824,-1.157528,-0.657727,9.030513
133.019824,0.794716,0.155234,11.473584
133.119824,-2.162812,-0.691526,12.295818
133.219824,1.065105,-0.134297,10.569995
133.319824,-2.865106,4.829913,5.684449
133.419824,-1.586142,-0.063410,7.405487
133.519824,-4.832903,7.877770,-2.570490
133.619824,-1.020240,-2.777768,12.099607
133.719824,-1.025923,-0.600598,11.439188
133.819824,0.517448,-7.624430,13.176078
133.919824,-2.125126,-1.470090,5.231907
134.019824,1.935794,-5.615655,19.958534
134.119824,-3.088835,17.536997,9.362218
134.219824,-1.798206,-11.644073,24.623940
134.319824,3.443870,1.378864,13.614861
134.419824,-7.009475,-0.392124,13.616956
134.519824,2.193022,-4.923532,17.184654
134.619824,-4.597809,-5.175376,17.810677
134.719824,-2.560320,2.720041,8.004291
134.819824,-7.118049,-8.670691,21.667309
134.919824,-4.683950,-6.524330,16.964813
135.019824,-1.210469,-2.902195,14.440086
135.119824,-2.935395,1.822134,5.570790
135.219824,-3.422634,3.273980,3.064608
135.319824,-0.453141,-3.876074,19.204496
135.419824,-1.485644,-1.452742,11.132010
135.519824,-3.326323,-5.793622,15.402599
135.619824,2.568396,4.583452,4.382455
135.719824,-2.166103,2.933002,6.620043
135.819824,2.405983,-6.081658,18.339491
135.919824,-4.313661,-5.368597,15.417255
136.019824,-1.947159,-2.720340,17.539690
136.119824,4.119244,11.144273,-2.959024
136.219824,0.990030,2.748755,2.829214
136.319824,1.578964,11.650654,-2.331208
136.419824,-2.186741,3.484249,7.589136
136.519824,2.906681,-9.117552,17.467306
136.619824,-1.698904,1.759921,13.617853
136.719824,3.071487,5.626722,1.468595
136.819824,-7.844869,8.473284,-2.214258
136.919824,4.587639,1.338485,11.709876
137.019824,-5.192724,-20.807686,28.123444
137.119824,7.278667,-0.635893,13.965111
137.219824,-1.052543,0.168694,11.004591
137.319824,-4.953143,-10.308878,26.545975
137.419824,1.080659,0.712762,4.482355
137.519824,-0.961915,2.324627,8.632108
137.619824,0.779462,-3.521338,11.933006
137.719824,0.709173,-3.826123,16.981264
137.819824,5.599803,1.980360,6.905686
137.919824,1.079163,-3.028715,13.858630
138.019824,2.035096,6.175576,1.001396
138.119824,1.015155,-3.152245,17.885752
138.219824,-2.699104,-5.370092,13.542778
138.319824,3.180360,6.533602,-0.633799
138.419824,-2.561517,-9.084052,22.557737
138.519824,0.155833,-1.902593,6.389135
138.619824,4.386941,0.850648,5.750252
138.719824,-0.833001,-3.048157,14.580964
138.819824,2.049453,-3.080759,13.016357
138.919824,-1.571187,3.519842,7.525427
139.019824,-2.075774,1.515853,-1.103689
139.119824,-3.512664,-6.147460,21.837498
139.219824,-0.362214,5.416453,3.814159
139.319824,-2.485844,-4.576273,21.258434
139.419824,0.241077,0.484247,4.630112
139.519824,-0.381954,0.702892,3.143272
139.619824,-2.435295,2.328815,14.050654
139.719824,0.496511,1.771885,0.190828
139.819824,2.851048,-8.542377,19.828724
139.919824,2.070689,-0.480957,12.628121
140.019824,-1.552942,0.426222,6.652645
140.119824,2.827419,-4.253242,12.235998
140.219824,-1.001396,1.778764,13.783854
140.319824,1.537688,-0.503091,10.803893
140.419824,-1.455733,2.777469,2.358426
140.519824,-1.294517,1.174278,9.584750
140.619824,1.677668,-2.952743,15.014065
140.719824,-3.202195,-0.969691,8.132905
140.819824,-1.239781,1.938186,8.002795
140.919824,3.726821,-1.092324,10.838590
141.019824,-0.763310,3.627519,3.908377
141.119824,-0.682553,-1.897807,12.002698
141.219824,5.076972,-0.352642,10.369297
141.319824,-3.599104,2.140081,11.477473
141.419824,0.657727,-2.724528,8.341978
141.519824,-4.715057,-5.545666,15.119648
141.619824,0.396909,4.018745,3.747758
141.719824,-1.540080,1.929512,4.508975
141.819824,-0.473779,-1.030409,11.962318
141.919824,1.089033,1.708475,12.582358
142.019824,-3.064907,1.083650,5.165506
142.119824,-0.286541,0.613161,6.625427
142.219824,0.681356,0.418146,5.894719
142.319824,-0.244666,-0.592224,11.578569
142.419824,1.664208,1.040280,2.327618
142.519824,1.774278,1.241875,15.102001
142.619824,-2.157130,-5.405984,14.536098
142.719824,-0.126820,9.165408,5.157131
142.819824,3.939184,-0.975673,8.086843
142.919824,-1.698306,-5.632705,19.855043
143.019824,-0.927817,11.726327,2.366203
143.119824,4.908875,0.327219,2.562414
143.219824,1.821237,3.242873,6.311369
143.319824,-3.466602,-1.550848,17.231314
143.419824,-0.984946,-1.126720,14.398810
143.519824,-0.553041,-4.939085,18.137596
143.619824,1.599602,7.871489,-3.414558
143.719824,0.315853,-1.111466,8.367701
143.819824,0.381057,-0.300897,14.682360
143.919824,-1.174876,-2.821138,14.885750
144.019824,5.240282,2.419443,3.636193
144.119824,-5.303392,-2.681756,19.215563
144.219824,0.228515,0.153739,7.741679
144.319824,3.179463,7.655836,9.485448
144.419824,4.715356,0.978066,4.758427
144.519824,-0.770489,-5.582156,19.789242
144.619824,-0.303290,-0.172283,13.395619
144.719824,2.242075,4.060022,5.291129
144.819824,1.574477,-1.949253,9.863813
144.919824,-0.244666,-2.517249,15.436996
145.019824,-2.739483,5.724828,0.774377
145.119824,0.291625,-0.002991,8.301001
145.219824,-0.213859,-7.737790,18.826130
145.319824,-1.974378,-2.242374,10.994422
145.419824,-2.213660,8.203195,3.294618
145.519824,-2.423032,-0.003589,4.351946
145.619824,-3.664010,-4.129115,21.414566
145.719824,-1.433301,-2.038386,10.618749
145.819824,0.620937,7.349555,1.137488
145.919824,-3.645166,4.236493,7.945966
146.019824,2.387140,1.400100,10.043275
146.119824,1.478166,-2.037788,11.548959
146.219824,2.475973,12.099607,0.249452
146.319824,5.255835,-24.728626,42.160038
146.419824,4.295715,9.183354,2.955734
146.519824,0.752842,7.572386,11.903096
146.619824,6.642775,9.727123,-16.224236
146.719824,-5.877670,-9.197711,19.555044
146.819824,0.320638,12.580863,-3.737290
146.919824,3.270988,-6.484848,8.932108
147.019824,-5.032704,-7.571788,11.749357
147.119824,0.444168,2.086541,5.061119
147.219824,0.202792,2.245963,3.032604
147.319824,1.410569,-5.751149,16.935202
147.419824,-3.620341,-3.933501,16.855940
147.519824,5.569295,-1.621736,12.658630
147.619824,-0.437887,2.188834,4.987241
147.719824,-4.339384,-8.327621,18.121742
147.819824,3.458526,-1.793421,8.136793
147.919824,0.971486,-1.312762,10.462317
148.019824,-0.148355,0.763011,9.431011
148.119824,2.872284,-2.828915,16.205091
148.219824,0.132503,7.282556,1.789233
148.319824,-2.028815,4.421936,2.492424
148.419824,2.436492,0.007178,12.411870
148.519824,1.254437,4.113860,-1.286142
148.619824,2.335694,1.530509,8.633304
148.719824,1.345664,-7.446763,23.589941
148.819824,0.989133,3.596412,3.672983
148.919824,1.645066,-9.698111,24.179472
149.019824,4.709075,-3.946662,20.838196
149.119824,0.049651,6.003891,-1.185045
149.219824,3.302993,-2.329712,13.814064
149.319824,-0.762712,0.591625,15.022440
149.419824,-1.225424,0.479761,7.289136
149.519824,-5.383851,-13.916956,29.982666
149.619824,-5.501099,17.635700,-21.372393
149.719824,2.238486,-1.169492,1.936392
149.819824,-7.396514,-19.199112,28.030422
149.919824,4.619942,4.111767,4.259523
150.019824,1.173380,2.288735,5.613562
150.119824,1.602892,6.019743,9.822537
150.219824,1.032503,6.334998,2.724528
150.319824,1.793421,3.716652,9.716355
150.419824,-4.803591,2.662613,2.650350
150.519824,2.129313,-9.779167,16.307384
150.619824,-4.224229,1.529313,3.389134
150.719824,-0.294915,10.192826,-3.384947
150.819824,2.621935,1.711466,6.365207
150.919824,-9.434601,-7.463812,19.207785
151.019824,-1.773381,-2.880659,9.755837
151.119824,1.971088,-0.552443,6.747461
151.219824,0.977468,-1.942673,11.602199
151.319824,2.207678,-3.047559,16.679470
151.419824,-0.490529,4.746762,0.187837
151.519824,-3.366701,-2.698207,12.870395
151.619824,3.737589,0.765105,10.416555
151.719824,-1.906182,6.779166,0.432204
151.819824,-3.924229,-3.953840,15.408880
151.919824,-1.072583,-0.687039,7.586145
152.019824,-3.631407,-7.287042,13.048660
152.119824,1.801496,8.598310,4.031906
152.219824,-2.876173,-9.195318,29.904900
152.319824,-1.623231,-5.955137,15.469599
152.419824,0.378066,1.778764,5.704190
152.519824,0.644866,-4.248756,11.378769
152.619824,2.570191,8.777771,1.798206
152.719824,-0.775275,-2.565405,18.075083
152.819824,2.826821,-0.167797,3.424727
152.919824,-3.509074,4.041178,8.991928
153.019824,1.209871,-5.053940,13.082758
153.119824,0.453440,-6.012864,19.307087
153.219824,0.237488,1.822434,10.706685
153.319824,-3.411866,2.196611,7.470093
153.419824,0.682852,3.820441,3.766303
153.519824,2.106282,-6.181857,17.875282
153.619824,-0.010768,3.213561,6.689136
153.719824,-4.753342,-4.301398,13.271492
153.819824,-1.895415,-4.014558,11.199905
153.919824,1.539781,7.038488,7.398608
154.019824,2.402992,-1.127319,10.426426
154.119824,0.733998,-5.013562,20.157436
154.219824,8.890233,-7.013363,17.897715
154.319824,-2.595913,4.818547,-2.659622
154.419824,2.092523,0.206680,-3.626622
154.519824,2.270789,1.909472,32.837006
154.619824,1.441077,-4.390231,9.807582
154.719824,5.829514,10.252348,18.778275
154.819824,-8.112566,12.281162,-8.156834
154.919824,2.932105,-0.852443,7.613962
155.019824,-2.770290,-0.521635,9.239286
155.119824,3.412165,14.414662,-24.871298
155.219824,-1.921137,-9.840184,24.003899
155.319824,-0.563510,0.876670,9.279665
155.419824,-1.945664,-7.616354,14.790635
155.519824,1.113560,-0.699901,9.643674
155.619824,4.177868,-1.165006,12.935300
155.719824,0.935295,-0.867099,11.528620
155.819824,0.714557,-16.977674,43.947777
155.919824,-6.253343,-7.154241,23.742483
156.019824,-1.714756,0.522234,2.178067
156.119824,-4.278666,-5.676972,15.428023
156.219824,-1.348056,-0.185145,8.352447
156.319824,2.824428,-0.189033,13.822739
156.419824,-0.011067,7.084849,-0.954437
156.519824,-2.137389,-6.805487,20.367407
156.619824,2.959323,-6.876673,19.149162
156.719824,4.989035,6.017052,4.478766
156.819824,-2.882454,2.819343,6.408577
156.919824,2.344966,-4.573881,12.589836
157.019824,-0.699003,-2.580958,15.835999
157.119824,1.913660,2.489134,10.355239
157.219824,3.525525,-6.741479,18.869501
157.319824,-1.629213,-2.044368,17.388044
157.419824,-0.889233,0.683151,4.638487
157.519824,-0.274875,2.784647,6.128019
157.619824,0.650848,0.869791,7.388139
157.719824,2.281556,5.794818,2.944667
157.819824,-1.901696,-7.452147,19.985153
157.919824,1.285843,2.280360,8.638389
158.019824,0.377767,0.569492,8.414660
158.119824,-0.558126,-10.888241,24.294926
158.219824,-3.295515,4.481159,-0.110070
158.319824,-1.266401,11.129617,-1.714756
158.419824,0.514457,-12.248261,24.942484
158.519824,-5.503193,9.416655,-6.716952
158.619824,-2.638984,-0.997209,8.793922
158.719824,1.054637,3.336492,0.828515
158.819824,2.833102,-0.861416,9.368199
158.919824,-5.667101,-5.593223,25.232315
159.019824,5.088935,0.730110,8.277073
159.119824,-0.666999,-2.513660,16.507784
159.219824,-0.514457,2.665305,4.901099
159.319824,-0.848854,-0.581157,10.521541
159.419824,1.060619,0.357428,13.612170
159.519824,1.968396,5.373682,2.426023
159.619824,1.927119,-1.961217,14.435899
159.719824,-3.985246,0.506381,12.063116
159.819824,-0.135194,0.859322,7.567002
159.919824,4.512864,-0.816850,6.495915
160.019824,3.390630,-6.841080,19.039091
160.119824,1.947159,-2.437090,9.075677
160.219824,-0.766601,-1.141675,22.198215
160.319824,-1.395913,2.993122,-2.902195
160.419824,-3.689733,-11.641681,21.898514
160.519824,1.520639,8.827422,7.577770
160.619824,3.354139,4.604389,7.889734
160.719824,-0.191725,-1.059721,9.268299
160.819824,-1.293919,-0.660120,15.735500
160.919824,7.727621,1.074976,6.631708
161.019824,-1.118645,4.303193,7.454241
161.119824,-1.229014,2.400001,9.855139
161.219824,-1.312762,0.629013,8.186744
161.319824,2.288735,1.801197,8.085049
161.419824,-1.910071,-1.079462,12.304194
161.519824,2.361118,2.900699,2.673680
161.619824,1.354637,3.757031,8.478668
161.719824,0.368196,1.505684,10.805688
161.819824,-0.094217,-4.578666,14.160725
161.919824,0.605384,-4.554738,15.564115
162.019824,-0.066401,1.540679,5.956932
162.119824,-4.491328,0.630808,6.940382
162.219824,-0.943669,-0.273081,12.910773
162.319824,-0.262911,4.144070,6.398408
162.419824,-2.582454,-0.021236,7.862217
162.519824,3.007778,-0.040977,6.457032
162.619824,-4.759923,-1.781157,14.049757
162.719824,2.898606,7.132406,0.617049
162.819824,-0.756730,-8.358130,21.431017
162.919824,0.306879,-2.801995,11.941082
163.019824,-0.630808,6.340382,5.797510
163.119824,0.332303,0.147757,6.047560
163.219824,-1.809273,-0.550050,9.405289
163.319824,-4.731209,1.892723,14.389538
163.419824,3.233601,5.566304,-6.481857
163.519824,1.318744,-0.997209,16.251154
163.619824,-0.032303,-0.526122,9.178569
163.719824,-0.104387,1.169791,6.194719
163.819824,4.457829,2.818446,12.387643
163.919824,-3.020340,-8.403294,18.056837
164.019824,-0.071785,0.684945,9.669696
164.119824,3.933202,7.230213,2.389832
164.219824,-6.552146,1.700699,4.120739
164.319824,-2.838785,-5.912964,17.499310
164.419824,5.058427,-3.970889,11.126625
164.519824,-1.811666,11.290235,-0.181256
164.619824,1.542473,-4.130012,22.286451
164.719824,5.381159,-0.135194,6.969395
164.819824,-0.439083,-0.145364,14.051851
164.919824,-1.145265,1.694417,10.470693
165.019824,3.180360,8.653344,10.237392
165.119824,2.003092,-2.527718,7.287042
165.219824,1.050150,-2.481656,18.297615
165.319824,0.328415,13.852349,-12.017653
165.419824,0.246760,-0.997209,13.596317
165.519824,1.476072,-5.871388,17.400606
165.619824,-1.648954,5.635098,4.724628
165.719824,-2.209473,4.830810,4.269394
165.819824,1.740479,-5.835795,18.293728
165.919824,-3.628117,-7.708478,23.528326
166.019824,-0.618545,6.130113,0.073878
166.119824,-0.477368,-20.627327,33.809387
166.219824,8.828020,7.615756,-3.269493
166.319824,0.884447,-1.655534,4.109673
166.419824,4.170989,-21.099911,30.836605
166.519824,-4.006183,6.764211,4.176373
166.619824,-0.161216,-2.547160,10.858629
166.719824,1.690828,-0.575773,10.418051
166.819824,0.553938,-0.121137,8.164012
166.919824,-0.095713,-2.514857,11.866306
167.019824,-2.257030,4.068696,6.107381
167.119824,2.516352,-1.256232,12.656238
167.219824,-0.421436,-0.262014,12.080165
167.319824,-0.838086,-4.260421,15.010775
167.419824,-3.367300,-10.550254,21.244377
167.519824,-4.842475,3.661617,-1.740778
167.619824,0.010469,4.926224,-0.472882
167.719824,5.298607,-8.854342,21.701406
167.819824,-1.170988,-1.715953,12.630514
167.919824,0.814158,4.038188,4.411767
168.019824,-3.557828,1.529014,3.190231
168.119824,0.546162,0.789931,10.867303
168.219824,4.818247,-3.932006,15.274882
168.319824,-0.473779,3.403790,3.072085
168.419824,-1.046262,-2.143371,15.307485
168.519824,-0.349053,-4.577769,19.601107
168.619824,1.675574,-4.683053,16.095621
168.719824,3.534797,0.201296,11.506486
168.819824,-2.238486,-0.914656,10.462916
168.919824,-1.851447,0.964607,4.599903
169.019824,2.797808,-2.997010,19.074387
169.119824,-0.416351,3.590131,3.278466
169.219824,-1.082453,1.998007,10.111770
169.319824,2.397608,-1.983650,8.678768
169.419824,-3.080759,11.861222,-8.023434
169.519824,0.770190,4.681558,15.403197
169.619824,0.278465,-10.519446,16.209579
169.719824,-1.867598,-3.401397,14.773287
169.819824,2.574079,2.806781,11.266007
169.919824,-2.669493,-3.440281,12.322738
170.019824,-1.001695,4.904987,3.458825
170.119824,1.572084,-1.359123,10.055239
170.219824,-1.692025,-6.619146,16.259529
170.319824,-0.519841,1.232603,5.399704
170.419824,0.804886,-6.597610,14.767305
170.519824,2.386242,11.651252,-2.921038
170.619824,0.938286,-4.266403,15.416059
170.719824,2.422434,3.404987,9.991530
170.819824,-7.101599,18.473488,-10.129716
170.919824,-1.014557,3.951747,2.796013
171.019824,3.284149,-13.709378,30.332916
171.119824,-0.075075,-1.119841,3.943970
171.219824,0.541974,8.112566,6.852446
171.319824,8.427522,-3.040679,20.408684
171.419824,-6.219245,5.108078,-2.433800
171.519824,-2.414657,-15.000904,18.657736
171.619824,-1.067199,7.705188,4.077071
171.719824,-0.155234,1.024427,4.799404
171.819824,-1.318146,-3.704389,16.076180
171.919824,0.154337,-1.580160,10.775478
172.019824,0.423829,5.093123,3.658925
172.119824,-0.487837,0.853041,8.833404
172.219824,2.705983,6.171090,4.576871
172.319824,-0.192622,-13.526327,33.586857
172.419824,-0.270389,10.320244,-3.647559
172.519824,-1.324128,-3.411866,8.812766
172.619824,2.138286,7.414759,1.687837
172.719824,-0.731306,5.834001,5.968896
172.819824,-4.983951,-3.805784,12.485748
172.919824,-3.580560,-3.700500,18.583857
173.019824,2.091028,5.098208,7.896016
173.119824,1.428216,6.701399,-1.980958
173.219824,1.996212,-15.095121,33.017365
173.319824,-3.421736,1.362713,7.748857
173.419824,-2.291128,4.109673,1.614557
173.519824,-0.103490,-5.512764,14.830715
173.619824,-0.920040,1.154238,6.013463
173.719824,4.410271,4.622933,11.973984
173.819824,0.689432,2.053042,19.121943
173.919824,-7.637591,1.311566,1.787738
174.019824,0.167198,-3.321537,18.580866
174.119824,-4.821837,-4.966004,18.621544
174.219824,2.337788,4.852046,2.491826
174.319824,-0.689432,-1.435395,10.099506
174.419824,-2.315953,-0.696012,6.072984
174.519824,-3.399603,-9.378369,21.209681
174.619824,4.491627,-0.277567,8.731410
174.719824,-0.611964,4.629514,11.108380
174.819824,0.417248,5.581259,-0.959821
174.919824,-2.076073,-7.987840,18.973589
175.019824,-0.763909,6.951449,8.543872
175.119824,1.548156,-6.047261,17.828922
175.219824,-3.725326,-2.853441,13.913366
175.319824,-1.231705,14.856138,-16.686647
175.419824,-2.446661,-5.338686,10.656734
175.519824,2.233102,-8.894122,11.160125
175.619824,2.541178,4.735097,4.405187
175.719824,3.229413,-6.329614,18.395721
175.819824,-1.282852,2.877369,10.549356
175.919824,1.269392,1.816451,8.729615
176.019824,1.166202,4.640281,7.241280
176.119824,0.698704,-7.205986,26.586952
176.219824,-0.339482,-4.939085,9.510572
176.319824,-3.261417,-17.264814,32.825340
176.419824,5.405087,3.538087,-1.599901
176.519824,1.867598,11.761621,1.163510
176.619824,-1.466800,7.016654,-5.153841
176.719824,3.675675,9.532407,-7.712666
176.819824,-0.491426,-3.768397,19.145273
176.919824,-1.289133,-9.136993,18.858135
177.019824,1.906781,1.738386,12.214762
177.119824,1.872683,8.667402,-4.346263
177.219824,1.376471,-2.478067,10.873883
177.319824,2.889034,-3.390630,8.059027
177.419824,-3.743272,1.352842,15.763317
177.519824,-1.887638,-2.952444,13.425529
177.619824,0.891326,1.703989,6.991529
177.719824,0.285344,-0.858425,4.848158
177.819824,-0.064008,4.778467,-0.164507
177.919824,-3.159423,6.011668,4.736293
178.019824,1.494617,-2.447259,7.577770
178.119824,-1.552643,-1.454238,13.462319
178.219824,1.258625,1.460818,9.284750
178.319824,-0.747458,-11.502896,26.302505
178.419824,2.219941,7.233802,2.049453
178.519824,-1.476072,6.960422,6.182755
178.619824,-0.594018,12.029318,-12.790534
178.719824,1.254138,-8.124530,26.493032
178.819824,-2.037788,3.481856,-3.490530
178.919824,2.793920,0.209970,6.186344
179.019824,1.582553,-0.865304,13.620544
179.119824,-0.403789,-7.196414,15.457933
179.219824,-0.087637,2.909672,6.613163
179.319824,-1.636691,3.414558,7.544570
179.419824,-0.157328,6.261419,9.352347
179.519824,-0.750449,-2.432005,0.581456
179.619824,0.176172,-7.996514,19.603199
179.719824,-0.387338,6.772286,7.110571
179.819824,-4.109075,-4.227818,7.887940
179.919824,-3.209672,3.017349,1.966302
180.019824,0.801296,-3.236592,14.666806
180.119824,-6.119345,-3.238386,16.016956
180.219824,-4.570889,1.133899,0.524626
180.319824,2.859423,8.467601,3.463910
180.419824,-2.904289,0.700200,4.099204
180.519824,2.702095,-10.678270,32.476288
180.619824,0.681356,7.290931,-12.934702
180.719824,0.933201,7.939385,8.439486
180.819824,-1.275374,-2.363511,13.585251
180.919824,-1.420140,-2.041975,10.897512
181.019824,4.156333,13.412968,2.997309
181.119824,2.478067,-29.306694,49.856255
181.219824,-3.522534,7.733603,-1.487438
181.319824,2.995216,-18.542879,31.269705
181.419824,2.305186,2.963810,4.836493
181.519824,-3.154638,4.152444,14.187943
181.619824,0.179163,-3.014956,11.545669
181.719824,-1.261317,6.331708,2.953042
181.819824,-3.576073,0.263510,8.493025
181.919824,-0.507577,-0.748056,12.851851
182.019824,-2.766701,-3.551547,11.703594
182.119824,-1.134497,4.438387,11.441581
182.219824,5.106284,-0.599402,15.017654
182.319824,-2.732903,1.358226,3.630211
182.419824,-0.682852,-1.152443,13.611871
182.519824,-0.845863,-14.969797,24.817160
182.619824,-2.827419,13.143476,-16.069599
182.719824,0.489631,10.420743,-3.440281
182.819824,1.706382,-4.752445,12.675978
182.919824,0.478565,-14.344074,33.186058
183.019824,-1.216451,6.978069,-13.368401
183.119824,1.393819,-10.939387,24.566511
183.219824,1.017847,10.299007,-9.531510
183.319824,-1.562812,-8.981759,25.526932
183.419824,2.772384,-1.293919,7.233802
183.519824,-4.605885,20.475384,-8.605188
183.619824,1.056730,-14.300106,28.939993
183.719824,-0.809372,-8.898309,13.528122
183.819824,3.504887,4.440780,13.925630
183.919824,0.809970,-0.920639,6.279963
184.019824,-0.424726,-8.522337,15.199209
184.119824,3.661019,11.968301,6.314360
184.219824,1.206282,-3.963412,12.563216
184.319824,1.303789,-7.098309,6.508777
184.419824,0.099302,5.198706,7.769196
184.519824,3.480361,-4.235296,14.532210
184.619824,-0.969093,1.121935,8.695817
184.719824,2.365006,0.289532,11.176276
184.819824,-0.862912,10.446765,-8.151749
184.919824,-0.659522,-6.727122,28.275986
185.019824,-3.896413,9.317053,-7.360920
185.119824,-1.778764,-4.412066,15.332011
185.219824,1.932802,-6.896713,13.652848
185.319824,4.856533,8.289037,3.165405
185.419824,-0.736690,10.009775,0.385544
185.519824,2.694916,-10.861022,17.765213
185.619824,-1.685145,2.419144,12.870993
185.719824,5.423632,4.116253,3.463611
185.819824,-0.838385,-13.257134,27.255445
185.919824,-1.444966,6.526723,7.590034
186.019824,-3.873382,4.992325,4.417150
186.119824,-1.437787,-2.823531,7.606185
186.219824,-1.719243,-7.662715,16.391434
186.319824,-2.993421,-1.554437,11.436196
186.419824,-0.926321,1.061516,0.205484
186.519824,-2.370689,0.983450,9.112467
186.619824,3.589832,-3.809972,10.453644
186.719824,0.486939,7.718647,5.946763
186.819824,4.959125,4.291527,-0.007178
186.919824,2.914757,-5.764908,29.502008
187.019824,-3.878167,11.333605,-13.082758
187.119824,4.696214,2.136791,1.445863
187.219824,-4.335196,-8.291430,28.110880
187.319824,4.641179,1.863710,9.650253
187.419824,-0.478265,5.114658,6.272186
187.519824,-0.867398,-8.066803,18.201305
187.619824,-1.592423,13.226028,-9.632308
187.719824,-1.017847,-3.744767,17.246569
187.819824,3.506382,-10.853844,23.070101
187.919824,-0.268594,11.851650,-12.874283
188.019824,0.373579,4.080959,6.678069
188.119824,3.309573,-6.595517,16.399210
188.219824,-1.641177,-12.155240,24.428326
188.319824,-1.316651,9.356833,-2.150250
188.419824,-1.679462,10.770393,-14.132608
188.519824,-0.387936,-20.278275,29.035109
188.619824,-2.035096,1.988137,8.330014
188.719824,5.295317,39.078979,-43.156948
188.819824,-8.942876,-32.887554,40.590347
188.919824,9.044869,21.702003,-12.548560
189.019824,-3.090031,-19.025034,27.636803
189.119824,-3.602395,-11.736496,26.729324
189.219824,1.450350,16.244574,-9.659825
189.319824,0.539282,1.241576,12.044272
189.419824,-4.613661,1.328914,9.297911
189.519824,1.727917,-11.260324,7.905886
189.619824,-15.064015,-38.278584,42.713978
189.719824,9.622138,24.847370,-19.079470
189.819824,12.808182,28.840691,-38.429031
189.919824,3.171387,-45.366123,61.874504
190.019824,0.853340,17.551353,-15.888043
190.119824,-5.107181,-18.742083,27.755247
190.219824,-7.485347,10.763814,-9.250652
190.319824,1.966003,-9.207582,21.537199
190.419824,0.876072,7.240981,-0.317348
190.519824,2.470290,10.333405,-0.037687
190.619824,3.404388,2.350948,6.986743
190.719824,-3.338287,-15.507884,26.569006
190.819824,-1.730609,6.353243,-4.013661
190.919824,-0.164507,2.696113,-0.508774
191.019824,-0.645464,0.748056,15.238092
191.119824,2.630908,-1.968396,14.868701
191.219824,4.666004,-8.458927,15.492031
191.319824,3.015854,0.055035,7.640283
191.419824,2.102992,5.388936,-1.979163
191.519824,-0.806082,-11.011770,22.002901
191.619824,-1.360619,5.679963,-4.767998
191.719824,-0.509671,4.843073,5.692824
191.819824,3.044568,-4.350750,11.061122
191.919824,0.648156,5.414958,2.174777
192.019824,6.201598,2.324926,6.636494
192.119824,1.406980,-2.029712,16.532011
192.219824,5.228916,6.743572,-7.397710
192.319824,2.711666,-15.521941,30.436106
192.419824,-0.069990,1.274178,7.375876
192.519824,0.969392,10.794920,-6.104091
192.619824,2.299203,0.731606,12.258730
192.719824,1.416850,8.322237,-2.084148
192.819824,0.180658,-7.135995,17.700308
192.919824,0.994218,2.967399,6.560821
193.019824,1.721636,-13.057034,18.809978
193.119824,-3.154638,1.994418,4.086044
193.219824,3.821936,0.599402,3.763611
193.319824,-9.316155,0.367597,11.592628
193.419824,2.519642,-22.013670,37.781174
193.519824,4.448257,-10.846665,19.400108
193.619824,-3.100201,20.686251,-29.643782
193.719824,5.751748,0.426820,2.582454
193.819824,0.150449,1.818246,1.560419
193.919824,0.767797,0.464507,13.104592
194.019824,4.118347,0.890429,-1.569991
194.119824,2.728117,-4.435396,14.758332
194.219824,-0.407079,1.913361,17.108084
194.319824,-2.936891,5.756832,-0.869492
194.419824,4.210171,-10.171590,28.011280
194.519824,3.166003,-0.987937,7.338488
194.619824,9.209675,2.414956,-2.804687
194.719824,1.455733,-8.063214,15.439987
194.819824,1.237388,7.349256,-10.206884
194.919824,-0.567996,-5.998806,23.575285
195.019824,-3.766004,4.030411,-0.147159
195.119824,2.033301,0.320339,14.394922
195.219824,0.023031,-9.822537,9.073882
195.319824,2.349752,-2.370988,16.699209
195.419824,0.997508,-0.485444,9.073584
195.519824,2.003092,-8.936893,19.721046
195.619824,-2.835196,0.390030,6.839883
195.719824,-4.370192,0.644567,9.104691
195.819824,5.627919,-6.681359,17.077276
195.919824,-2.851048,1.934896,13.984254
196.019824,-0.912862,-2.350350,12.367603
196.119824,-7.976773,11.414362,-2.556133
196.219824,-0.547059,-4.131507,11.100903
196.319824,6.950253,5.464310,11.360823
196.419824,-0.541974,2.700899,2.654238
196.519824,0.283250,-3.276671,22.336700
196.619824,-7.819745,-20.446669,37.863129
196.719824,0.968495,3.977769,2.545066
196.819824,-0.694218,-3.795017,8.491529
196.919824,-2.537588,-15.301502,26.452354
197.019824,-1.823630,15.764215,-18.485153
197.119824,-2.296512,-20.015961,34.879280
197.219824,-2.025823,3.405286,-5.363811
197.319824,0.585045,7.849655,-4.828118
197.419824,2.382354,2.419144,2.921337
197.519824,1.567299,-13.437493,27.705894
197.619824,-0.300598,2.067698,12.967902
197.719824,2.499902,0.296710,8.499605
197.819824,-0.114556,6.498308,-0.142971
197.919824,4.053442,-7.804191,13.058531
198.019824,-0.766002,-1.150050,10.596017
198.119824,-0.020339,3.288636,8.715557
198.219824,4.299304,6.005087,-3.022733
198.319824,0.452842,-10.965409,31.351360
198.419824,2.572583,-0.178265,3.572484
198.519824,0.423230,1.918446,6.632007
198.619824,0.387637,-2.775674,17.557037
198.719824,-0.089731,-8.514261,19.012770
198.819824,2.603989,4.072584,-4.089334
198.919824,3.822833,0.608973,17.708981
199.019824,1.095015,3.352943,7.323234
199.119824,-1.253540,2.534896,2.110769
199.219824,0.378066,-8.160124,24.693331
199.319824,2.565106,11.682957,-8.446963
199.419824,0.738485,2.122434,5.142774
199.519824,1.643570,-3.671487,14.080864
199.619824,0.289831,3.347559,5.754738
199.719824,-0.745065,2.010270,7.419844
199.819824,-2.714657,3.136691,8.632108
199.919824,0.744766,-1.354637,16.690537
200.019824,2.167000,-2.422434,9.798609
200.119824,-1.342673,5.436493,3.026622
200.219824,-0.274875,-4.486243,12.213565
200.319824,0.983749,-6.420840,16.824236
200.419824,0.978664,7.541579,3.862315
200.519824,3.370590,4.095914,1.858625
200.619824,0.248554,-2.345265,14.432310
200.719824,0.809073,-7.703991,18.770496
200.819824,-0.864108,4.303492,2.304288
200.919824,0.878764,-1.827219,11.828321
201.019824,-0.214457,-2.303092,17.502302
201.119824,-0.339482,-12.586546,21.030220
201.219824,-1.055235,5.032704,7.743174
201.319824,-1.144367,1.247558,7.753942
201.419824,-0.946660,-4.678566,16.925631
201.519824,-1.270888,7.742277,-5.922236
201.619824,3.784548,-11.277971,22.316063
201.719824,3.742375,3.282055,10.051351
201.819824,1.248455,4.618447,-2.025225
201.919824,2.702394,-2.085644,9.858130
202.019824,0.341875,0.450748,10.894522
202.119824,1.607678,-9.687043,26.152355
202.219824,2.375475,-0.159422,10.533504
202.319824,-1.849951,-2.463411,8.662915
202.419824,0.766900,11.428720,-2.363511
202.519824,-1.227219,-3.585047,12.443575
202.619824,-0.315254,11.041680,-3.841079
202.719824,-1.247857,-10.669297,21.621546
202.819824,0.268295,3.927220,3.831806
202.919824,-0.131007,-11.628819,29.165815
203.019824,-1.192523,6.627222,7.182057
203.119824,0.592224,14.195720,-12.128919
203.219824,4.374080,-6.482456,12.649358
203.319824,0.391227,15.995720,-6.043672
203.419824,-1.074078,-3.964309,9.586843
203.519824,-0.478864,2.151148,0.723829
203.619824,5.202595,-7.545168,15.959529
203.719824,-7.911569,32.726933,-35.476887
203.819824,-0.410070,-13.328022,23.844179
203.919824,0.614357,-4.619344,9.102596
204.019824,-6.530910,-12.852748,16.160826
204.119824,4.990830,19.357636,-16.983955
204.219824,3.039782,-7.774580,31.221849
204.319824,2.303391,10.482059,2.496312
204.419824,0.981356,-6.513263,12.605090
204.519824,-8.457432,-2.060519,10.657034
204.619824,-1.662713,7.741379,-1.724328
204.719824,0.129811,-2.079363,14.741582
204.819824,0.436690,-10.744073,20.489141
204.919824,6.868896,5.839684,8.115856
205.019824,3.902395,6.747162,1.653740
205.119824,0.122931,-7.063612,18.987646
205.219824,-0.179462,-0.673879,6.467800
205.319824,-3.742674,0.871885,7.434500
205.419824,0.126820,3.827918,6.920043
205.519824,2.361118,-1.836790,13.546966
205.619824,0.772583,12.386148,-10.238290
205.719824,0.295215,-5.329414,17.075781
205.819824,1.447359,2.347658,7.881061
205.919824,-0.125623,-0.665205,9.137292
206.019824,1.377369,-5.464609,12.004492
206.119824,1.247857,-0.339482,13.954044
206.219824,0.567996,7.763513,-9.546764
206.319824,0.990329,-0.316451,14.214264
206.419824,1.103989,-7.175178,24.530619
206.519824,-0.521934,3.881757,6.466304
206.619824,2.476272,-8.309675,21.300907
206.719824,6.636195,-0.361017,10.143175
206.819824,-2.535495,3.502793,3.133102
206.919824,-1.344467,0.637687,12.693625
207.019824,0.387039,1.805983,6.862615
207.119824,1.475474,1.659123,7.695018
207.219824,2.800799,-5.633602,18.232113
207.319824,-1.608276,5.986842,0.521934
207.419824,-4.120142,1.244268,9.978668
207.519824,-0.240479,5.679664,5.847460
207.619824,-0.988834,-4.308576,12.525529
207.719824,-2.155933,0.282652,11.905489
207.819824,-0.780060,15.818353,-16.475780
207.919824,1.701297,-14.214264,27.225536
208.019824,0.079262,3.680759,5.537590
208.119824,1.162912,-1.015155,7.301997
208.219824,-2.474478,-3.238685,11.490633
208.319824,-2.669493,2.712265,9.276974
208.419824,-1.962414,1.222433,6.968498
208.519824,-2.582753,-4.429713,14.752649
208.619824,2.178665,-8.702396,22.947168
208.719824,0.829113,3.153740,4.101597
208.819824,1.884647,-2.156831,9.227323
208.919824,0.360718,-2.129313,12.687045
209.019824,-1.466800,2.744867,7.299006
209.119824,1.305584,0.856032,4.824828
209.219824,0.080758,-19.219151,44.932125
209.319824,6.998707,-3.069991,15.947266
209.419824,-1.060320,-1.589432,8.337193
209.519824,0.281755,-3.004189,13.019049
209.619824,1.056132,-7.618747,8.638688
209.719824,2.118845,-4.607081,22.257139
209.819824,0.787837,-1.152443,14.417953
209.919824,-0.713659,-2.667399,18.879969
210.019824,3.505784,-2.789134,10.656734
210.119824,0.580260,0.698405,11.726027
210.219824,1.548455,-1.697109,9.862916
210.319824,-3.324827,2.256432,3.627818
210.419824,0.622433,-4.444369,16.436598
210.519824,1.794318,3.447758,1.953740
210.619824,0.951745,-1.280459,14.855241
210.719824,1.782952,4.549354,6.731907
210.819824,-1.620838,-1.922334,7.902297
210.919824,6.123831,15.721144,-0.717249
211.019824,-0.952942,-3.483950,17.269600
211.119824,-1.316052,-5.112864,20.266609
211.219824,-3.074179,-18.501904,25.369005
211.319824,1.578964,2.891128,9.417552
211.419824,3.806383,9.533903,-0.334696
211.519824,0.700499,-3.561717,16.089340
211.619824,1.570290,-1.490429,10.607682
211.719824,-1.483849,-2.856731,13.828422
211.819824,2.325824,-2.175076,11.153245
211.919824,-3.877270,3.552145,4.325625
212.019824,1.688136,4.349853,-2.948556
212.119824,-1.037588,0.465105,13.950156
212.219824,1.284348,-1.025624,7.870592
212.319824,1.910071,-0.190528,9.745070
212.419824,-0.229412,2.095215,10.303793
212.519824,0.981356,-3.154638,17.094027
212.619824,-0.773480,3.356532,-0.267099
212.719824,1.232304,-3.838686,20.216061
212.819824,0.372682,8.195417,-2.359921
212.919824,-2.387140,0.169890,7.844271
213.019824,0.943071,-2.303690,14.277674
213.119824,2.598605,-7.027122,17.194824
213.219824,-0.617049,6.336792,4.467699
213.319824,2.132902,2.008775,9.616755
213.419824,-3.128616,0.040080,13.084553
213.519824,0.264108,-3.427718,8.194221
213.619824,0.701396,0.107378,5.892026
213.719824,-1.193121,0.392722,9.682258
213.819824,4.836792,14.307883,-4.937590
213.919824,-0.014955,-3.406482,11.789736
214.019824,-3.825226,-9.955338,24.799812
214.119824,1.121037,-1.634298,4.016353
214.219824,-1.784747,0.923929,8.126624
214.319824,-3.216851,6.943373,5.193622
214.419824,-0.786042,-11.190334,24.124737
214.519824,0.370588,0.775574,2.483152
214.619824,-1.871187,0.177667,13.743476
214.719824,1.390828,6.720541,1.789831
214.819824,-2.626422,2.368595,5.519644
214.919824,-1.596611,-1.124627,11.940484
215.019824,1.767399,-7.903493,18.653547
215.119824,-0.295514,3.676871,6.293722
215.219824,-1.770689,2.225624,9.871291
215.319824,2.005185,6.133103,1.200300
215.419824,1.322034,-8.454740,18.769600
215.519824,2.134697,-2.828915,13.543675
215.619824,0.492323,-4.156034,14.098212
215.719824,-1.148256,-0.622732,9.027821
215.819824,-0.640379,-5.664410,20.112572
215.919824,1.548455,3.383750,4.922335
216.019824,2.291128,-2.739483,13.386946
216.119824,-2.585744,0.841675,13.090236
216.219824,0.163011,4.697410,2.013261
216.319824,1.866103,-2.048854,10.945369
216.419824,-2.543571,-0.517448,11.531013
216.519824,-0.067597,-3.940979,12.690335
216.619824,2.683551,9.654441,-5.769993
216.719824,-2.027618,-3.100500,16.627724
216.819824,1.262812,-0.485145,9.879067
216.919824,1.613660,-5.560621,15.608682
217.019824,-2.246262,-5.877670,18.070597
217.119824,0.707378,5.021936,4.780560
217.219824,-0.678664,-1.880759,8.488539
217.319824,0.488435,-1.398904,16.473089
217.419824,0.529711,-2.505883,8.045568
217.519824,-2.635993,-0.491127,11.096715
217.619824,0.974477,3.278466,4.315755
217.719824,1.737488,1.479064,7.163214
217.819824,-0.472283,-2.087140,12.317055
217.919824,1.068395,5.879464,3.139084
218.019824,-1.777269,-5.178367,14.975182
218.119824,3.388237,2.812165,5.880362
218.219824,-0.395115,-3.835097,15.497714
218.319824,0.281157,3.294019,2.268695
218.419824,0.462712,6.338288,2.444567
218.519824,-0.925723,-17.536997,33.605698
218.619824,-3.565904,0.796810,0.625723
218.719824,-2.052743,4.302295,6.559026
218.819824,0.858425,3.332604,4.815556
218.919824,-2.277668,0.262313,7.736893
219.019824,1.308276,1.633700,3.903591
219.119824,-0.814756,-2.835196,12.959229
219.219824,1.010070,7.787740,2.054238
219.319824,1.705185,6.790532,-1.651048
219.419824,2.548057,0.012861,9.569496
219.519824,-0.079860,0.049053,9.319147
219.619824,-1.031606,-0.301795,9.806087
219.719824,1.474876,-0.647558,6.381658
219.819824,-1.161117,4.237091,8.864511
219.919824,2.216651,0.134297,10.135099
220.019824,1.171586,-1.307379,10.957334
220.119824,-0.738784,-1.061217,7.711469
220.219824,-2.313859,-2.190330,15.515960
220.319824,-1.969293,0.434596,7.968997
220.419824,0.869791,3.715455,4.830212
220.519824,1.058824,-0.288036,11.963814
220.619824,-1.004686,-6.479764,15.976278
220.719824,-0.674477,1.684547,9.756435
220.819824,-2.573182,1.615754,6.406484
220.919824,-0.540479,-4.022634,16.351353
221.019824,2.472085,-1.375275,14.050654
221.119824,-1.189532,-2.902195,10.454541
221.219824,-0.221635,-2.980560,16.753647
221.319824,-4.587639,5.749953,-7.047760
221.419824,-2.065006,-1.542174,13.137195
221.519824,2.329712,6.749854,2.739782
221.619824,3.276671,1.778465,9.037093
221.719824,1.012463,0.911965,9.591928
221.819824,0.348455,-0.222533,9.658628
221.919824,-1.186840,0.002991,8.146963
222.019824,-0.142074,4.161119,5.232206
222.119824,0.149551,-2.166701,12.806087
222.219824,0.481855,2.150848,6.532705
222.319824,6.329614,-2.766701,12.259926
222.419824,-0.418445,-1.960320,15.411572
222.519824,-1.694717,3.351148,3.360719
222.619824,-0.115155,-0.795614,9.246166
222.719824,-4.211069,0.837787,11.386247
222.819824,3.691228,1.984248,5.850451
222.919824,-1.022633,-1.266701,10.456037
223.019824,-1.677369,-4.965107,18.295223
223.119824,1.924129,0.463609,5.909674
223.219824,-2.593820,-3.460021,13.569996
223.319824,3.841079,-14.617155,42.824944
223.419824,-5.801997,1.737787,4.125824
223.519824,-1.043869,-1.338485,10.043275
223.619824,-4.214957,-15.323936,12.534502
223.719824,4.508078,2.353042,0.441775
223.819824,0.463908,3.029613,6.201897
223.919824,1.225424,3.143870,6.443871
224.019824,-6.305686,-0.150150,10.556236
224.119824,-1.695016,1.123430,4.648058
224.219824,3.326921,3.355934,7.010970
224.319824,1.049552,-2.173281,4.660620
224.419824,-1.531407,-3.116352,12.285948
224.519824,0.619442,-2.241178,10.779666
224.619824,-3.066701,0.492323,9.116954
224.719824,-1.919642,14.055440,4.253541
224.819824,-0.439681,0.076869,14.013865
224.919824,-0.071186,-2.871387,18.726828
225.019824,-3.183650,2.013560,-1.445265
225.119824,-3.462115,0.955334,10.678868
225.219824,1.975873,-1.878665,9.106784
225.319824,0.496810,2.201995,8.623434
225.419824,0.388235,-9.544670,12.804293
225.519824,-2.852544,17.654844,-13.838890
225.619824,1.174876,-11.277373,21.570997
225.719824,0.911965,-1.778465,11.982059
225.819824,0.645165,3.329613,-0.575175
225.919824,0.345464,0.573978,9.950253
226.019824,-1.363610,1.999802,10.842776
226.119824,-1.699801,-12.255738,19.889141
226.219824,-0.947259,-0.145065,9.633803
226.319824,3.724129,7.935198,-3.639483
226.419824,0.790529,2.059323,11.910872
226.519824,2.635096,-2.760719,9.477372
226.619824,-1.049851,-2.529513,11.594123
226.719824,2.469393,0.682254,5.309973
226.819824,-0.443270,-2.339283,10.630713
226.919824,2.132603,-6.192027,17.440685
227.019824,1.213460,0.613460,8.470592
227.119824,-0.554238,3.508775,2.085943
227.219824,0.124726,2.901298,16.668701
227.319824,4.018745,-5.442176,17.411972
227.419824,-2.179263,13.255341,-13.594522
227.519824,-3.253042,0.973281,9.085249
227.619824,0.803390,-15.626328,28.419256
227.719824,1.196411,-12.345469,21.988544
227.819824,1.587638,0.093021,6.857531
227.919824,3.006283,12.060723,0.866800
228.019824,-2.906083,-11.158330,33.108891
228.119824,-0.952643,-5.381757,14.905789
228.219824,2.127219,-5.324329,8.891729
228.319824,2.861218,5.292624,10.330712
228.419824,-2.095515,-5.462814,15.975082
228.519824,-0.796810,-3.926323,17.336597
228.619824,-0.678066,3.430709,-0.676271
228.719824,1.115953,5.395217,3.783352
228.819824,0.763610,12.813865,-11.382359
228.919824,-1.633401,-0.446860,12.114562
229.019824,0.195015,1.443470,10.952249
229.119824,-2.185544,1.667199,7.710871
229.219824,-3.170191,-3.147758,11.884552
229.319824,-0.468993,-1.851746,6.878169
229.419824,-2.841178,9.571291,-2.009971
229.519824,1.440778,10.403095,-7.781758
229.619824,-2.301895,-16.467106,30.221649
229.719824,-0.352642,1.980061,2.238187
229.819824,0.003290,-2.902793,11.324332
229.919824,0.099003,11.363813,-6.189036
230.019824,2.538486,-12.836895,28.032515
230.119824,0.924228,-9.967004,21.368504
230.219824,-2.010868,-0.828814,4.485047
230.319824,6.574579,0.447458,16.868502
230.419824,1.919044,6.256035,3.812066
230.519824,4.310670,0.780359,8.680264
230.619824,-2.593820,-2.190928,12.233604
230.719824,0.559023,8.620442,-7.696514
230.819824,4.303791,-3.726522,19.999212
230.919824,0.431306,-4.669892,10.358231
231.019824,0.410668,-3.230610,13.249059
231.119824,-0.826122,2.620739,5.002495
231.219824,-0.573081,5.378168,5.990731
231.319824,2.609672,-0.198006,7.081858
231.419824,1.160818,0.793520,13.644473
231.519824,0.689133,-8.211868,17.390436
231.619824,-1.005883,7.246963,1.943271
231.719824,-1.896013,-6.273084,13.563416
231.819824,2.405983,-2.273780,14.439488
231.919824,-0.739681,-2.894717,12.843475
232.019824,0.961017,-0.378664,10.534402
232.119824,0.701396,7.988439,-1.148256
232.219824,0.581157,-0.776770,10.874481
232.319824,-1.213759,-2.180460,14.155042
232.419824,0.709173,-2.196013,11.968899
232.519824,-0.503689,8.393125,-10.229915
232.619824,-2.066501,7.269694,4.491627
232.719824,-0.541077,-16.143177,32.226536
232.819824,0.597607,-0.148056,5.374579
232.919824,-1.070489,-5.501698,20.106590
233.019824,1.565205,6.725327,1.726422
233.119824,-2.456233,-0.428016,11.465210
233.219824,-1.576272,-4.864608,14.188541
233.319824,5.455038,3.562016,6.014360
233.419824,-3.457928,10.388439,-3.654139
233.519824,2.023431,0.215354,11.237593
233.619824,-1.556232,5.492724,1.768894
233.719824,0.760619,-9.014660,14.050954
233.819824,-2.587838,-4.803591,14.898911
233.919824,1.713261,10.172787,-7.760223
234.019824,1.456332,1.162314,12.719049
234.119824,1.346860,-7.904690,20.748764
234.219824,-1.294517,-5.620142,15.188143
234.319824,-4.450650,5.801398,2.576771
234.419824,-1.213161,4.020540,2.346163
234.519824,-1.505385,-3.541976,17.358133
234.619824,-0.058923,-3.202793,7.523334
234.719824,0.774975,8.486744,1.303490
234.819824,-3.953541,-3.406183,17.433208
234.919824,-1.140180,-6.408577,18.577875
235.019824,0.345763,-4.580461,12.533306
235.119824,0.707677,1.254736,5.822037
235.219824,-2.612663,6.966105,5.432605
235.319824,0.450150,0.771984,9.053843
235.419824,-1.179961,-0.802194,12.194423
235.519824,2.911467,-9.894919,20.883659
235.619824,-2.075475,2.350948,8.263015
235.719824,1.155135,3.616751,1.884348
235.819824,-2.834598,-3.391228,19.979172
235.919824,-0.986142,-5.571688,12.657434
236.019824,-0.675673,4.628317,2.514258
236.119824,0.002692,7.943274,9.635597
236.219824,2.506183,7.055238,-1.517648
236.319824,-2.529812,-16.884653,31.397722
236.419824,-2.506482,1.826920,5.301897
236.519824,1.114756,0.104387,13.787444
236.619824,0.375673,6.195317,3.967001
236.719824,-1.026521,-1.563710,11.155639
236.819824,-4.418646,2.417648,3.739084
236.919824,-3.204887,-6.756135,15.763617
237.019824,-3.132205,2.443670,3.248556
237.119824,-1.015753,2.928516,4.260122
237.219824,-1.076770,1.017847,10.510773
237.319824,-2.577967,0.012263,5.182555
237.419824,0.144467,3.656532,6.882655
237.519824,0.377767,-1.549951,11.405688
237.619824,-1.306780,-0.611366,8.128419
237.719824,-1.483251,-6.186045,18.704695
237.819824,-0.601197,6.071787,-0.027517
237.919824,-2.909971,5.350650,2.351846
238.019824,-0.161216,-0.007478,12.201900
238.119824,1.260120,-0.951147,11.136196
238.219824,0.183051,-2.124228,11.767303
238.319824,2.095515,-3.314657,19.256241
238.419824,1.156930,4.851448,5.094020
238.519824,0.754636,-2.001596,16.413866
238.619824,0.839582,-3.292524,10.509875
238.719824,0.538086,5.726324,2.874378
238.819824,-1.671387,2.100001,5.985646
238.919824,0.891326,0.911965,10.659427
239.019824,-1.129711,0.079860,8.032107
239.119824,0.639781,-4.050151,14.017155
239.219824,0.858724,-6.051748,16.540386
239.319824,-3.021836,16.304394,-18.725931
239.419824,2.932703,3.461816,14.225929
239.519824,-1.950150,-8.848957,12.559029
239.619824,0.371187,10.686047,-1.838884
239.719824,-2.690131,-13.389936,32.731422
239.819824,5.575277,-4.746463,16.781464
239.919824,-2.184348,7.909475,0.866800
240.019824,-4.124030,-8.656036,24.719055
240.119824,-3.274877,4.585546,0.067298
240.219824,-2.842075,-3.564708,10.640285
240.319824,3.976273,4.082754,6.087042
240.419824,1.483849,11.273186,-2.692823
240.519824,1.040579,-0.709472,3.185445
240.619824,-2.006980,-15.468701,28.426733
240.719824,-2.313560,2.166103,6.904789
240.819824,0.034098,-1.891825,14.239388
240.919824,-0.578764,0.352642,5.616553
241.019824,-0.454636,9.487243,-4.290630
241.119824,-0.691526,-11.977274,24.347569
241.219824,1.126720,-5.974579,17.009977
241.319824,-2.944069,-3.616751,11.176576
241.419824,-1.235295,-3.149254,15.172290
241.519824,-1.166501,-4.375276,12.687643
241.619824,1.377069,13.806886,-10.148260
241.719824,3.014358,5.066204,1.549054
241.819824,-0.415454,-11.569596,21.417856
241.919824,-4.090530,6.356234,1.644168
242.019824,1.447957,-2.152643,10.653444
242.119824,-3.528516,-6.362216,11.903694
242.219824,1.434497,11.982059,-3.087639
242.319824,-2.311766,-22.376780,35.913277
242.419824,1.327119,3.653541,0.220439
242.519824,-5.085346,9.801899,-4.861318
242.619824,0.046959,-15.157933,26.633612
242.719824,0.958325,-0.589831,9.965508
242.819824,-1.363610,13.184453,-11.705688
242.919824,-1.519442,-5.226523,22.016960
243.019824,2.193022,-7.977970,15.708880
243.119824,-3.081357,3.043969,6.103791
243.219824,3.685545,3.451946,8.033603
243.319824,0.035294,-8.507681,18.635901
243.419824,1.396810,7.122835,2.103889
243.519824,-1.652543,-8.455338,17.999710
243.619824,1.701596,-0.804287,9.033205
243.719824,1.616352,4.652246,3.051746
243.819824,-2.716153,-1.914557,13.878072
243.919824,-0.479462,-7.694121,21.866211
244.019824,0.033799,5.188238,4.927420
244.119824,0.527916,-3.646064,17.141582
244.219824,-0.236291,-3.929015,14.991034
244.319824,-0.984048,-0.200100,11.527124
244.419824,-1.187139,3.003890,3.200999
244.519824,0.348455,-4.670491,17.137396
244.619824,-1.767698,-0.247358,9.877871
244.719824,1.461416,-6.233004,14.477474
244.819824,-0.868595,5.442176,31.994133
244.919824,-1.494019,3.210570,4.241577
245.019824,-0.110668,18.060726,12.527922
245.119824,-13.438092,-2.233401,5.714360
245.219824,1.955534,1.307079,3.729513
245.319824,-2.566900,1.370190,7.328319
245.419824,0.733101,-4.126423,9.725926
245.519824,1.059422,-6.270990,14.522040
245.619824,0.746262,-1.708176,10.433305
245.719824,0.317647,1.861616,8.041080
245.819824,-0.302991,-1.960619,11.900404
245.919824,2.203490,2.926123,4.916353
246.019824,-1.763211,2.328516,7.745268
246.119824,-1.789233,-7.154241,17.922541
246.219824,-0.367896,3.141776,5.066503
246.319824,-1.156032,-4.852644,12.805789
246.419824,0.486341,8.198708,-0.551845
246.519824,6.269196,-29.714970,54.180683
246.619824,9.598808,11.230713,-6.999006
246.719824,1.367199,-2.044667,15.339489
246.819824,0.240778,-7.700103,21.013470
246.919824,-5.761319,-1.764707,7.851449
247.019824,-6.267102,-0.811765,8.501998
247.119824,1.170988,-1.885544,13.156936
247.219824,-3.046961,-0.463011,9.406186
247.319824,-3.129513,0.058624,8.101500
247.419824,1.146760,1.394717,8.754440
247.519824,3.075076,0.485444,8.519346
247.619824,-1.423729,0.490230,9.353245
247.719824,-0.257528,-2.852843,13.738391
247.819824,0.646959,0.746561,10.854142
247.919824,0.143270,0.193520,9.340384
248.019824,1.592423,2.294418,7.754839
248.119824,-0.848256,0.954138,10.228121
248.219824,-2.168196,-4.673781,14.458033
248.319824,-2.240579,0.448355,7.958827
248.419824,-2.670390,0.347857,8.535198
248.519824,4.307679,4.248756,-0.382253
248.619824,4.124030,4.189533,5.139783
248.719824,0.433400,-1.714457,12.935899
248.819824,-0.237787,-6.514759,16.763517
248.919824,4.382155,-3.185445,13.287045
249.019824,2.897110,-1.028316,11.439487
249.119824,3.786642,3.899105,14.936896
249.219824,1.795514,-5.498407,17.460726
249.319824,1.657329,-1.823929,12.380165
249.419824,-3.788436,1.687538,7.227521
249.519824,0.504287,-3.043969,16.180565
249.619824,4.978866,2.826223,7.966604
249.719824,-2.371886,-3.208476,15.110376
249.819824,1.686043,-4.580461,17.587246
249.919824,1.929512,2.317150,7.933702
250.019824,-1.129113,-2.007578,8.574680
250.119824,0.318545,3.531806,9.869197
250.219824,-0.776770,-8.783154,24.318256
250.319824,-3.055634,-1.296910,10.332507
250.419824,-0.266800,1.628017,8.274979
250.519824,1.789831,2.028515,3.375376
250.619824,-0.680160,5.158926,0.611964
250.719824,0.558126,3.767200,9.308080
250.819824,1.990828,-8.970094,20.210079
250.919824,-0.487538,-0.563211,12.169597
251.019824,4.003790,-0.551845,11.530415
251.119824,1.604986,-4.581059,15.326328
251.219824,-0.970589,-2.158625,12.055938
251.319824,0.780060,0.902094,10.307682
251.419824,0.018245,2.491527,6.766005
251.519824,-1.241277,2.859722,4.992026
251.619824,1.227817,-5.606383,18.239290
251.719824,-0.399601,-0.614955,9.834202
251.819824,-0.918246,1.397708,9.640982
251.919824,-0.573679,-0.984347,11.669796
252.019824,-0.178564,0.000598,8.147561
252.119824,0.175573,2.557628,4.719244
252.219824,-0.602991,0.988236,9.544372
252.319824,-0.625125,-0.984347,9.838987
252.419824,0.415454,1.791626,8.281559
252.519824,2.108675,-1.378266,14.594423
252.619824,-0.712762,-1.296013,13.539188
252.719824,-0.417847,0.803091,10.154541
252.819824,-0.299402,0.916451,7.519146
252.919824,0.881157,-4.044767,11.328220
253.019824,-2.050051,0.124726,7.592426
253.119824,0.552443,0.317946,11.319247
253.219824,-0.479163,-2.024328,11.940484
253.319824,0.181555,-5.682355,13.112070
253.419824,1.095315,10.240383,-9.364013
253.519824,2.830111,-4.283153,16.695921
253.619824,1.592423,12.812668,-15.021841
253.719824,1.360918,-0.239581,7.078269
253.819824,1.276870,-6.987341,16.208981
253.919824,-3.024827,5.517251,-0.097508
254.019824,-3.738486,1.111765,6.530910
254.119824,-0.285643,-1.963012,13.639688
254.219824,0.756132,-1.965704,11.420045
254.319824,0.332004,3.075076,7.235597
254.419824,4.610072,-2.740081,14.646169
254.519824,-1.963012,-1.427020,12.661621
254.619824,-0.249452,-0.119043,8.629715
254.719824,-0.945763,0.976870,8.647661
254.819824,0.329312,0.460618,9.640384
254.919824,-1.400699,2.324029,7.887043
255.019824,0.020339,-2.811567,12.649058
255.119824,-1.339383,-2.091327,11.558829
255.219824,-0.956531,-1.146461,10.803595
255.319824,3.579962,8.388638,-7.791928
255.419824,5.752645,3.357728,3.758526
255.519824,0.505484,0.004187,9.902996
255.619824,-0.837787,3.774379,6.181857
255.719824,-0.504287,0.415454,8.398808
255.819824,-5.403891,-0.804886,5.520541
255.919824,-2.635096,3.574578,6.493822
256.019824,0.416949,4.710570,4.655835
256.119824,1.279861,-1.337588,14.399708
256.219824,0.725623,-1.738087,12.356237
256.319824,4.055834,-1.162314,12.892529
256.419824,-1.666900,-1.802394,12.339787
256.519824,0.988236,2.717947,6.391828
256.619824,-1.721337,0.323031,10.068399
256.719824,1.105484,-3.274279,13.346866
256.819824,-2.070390,0.385843,10.612168
256.919824,-0.636192,-3.169892,13.209578
257.019824,-0.295514,3.354737,4.421637
257.119824,0.282054,0.480658,8.127222
257.219824,2.230709,-4.767400,13.625629
257.319824,3.163311,1.091127,9.094521
257.419824,1.509273,2.631806,9.406186
257.519824,0.270090,-1.541277,13.027124
257.619824,-1.497608,-1.656431,11.306685
257.719824,-2.040479,-1.177568,9.848558
257.819824,-2.023730,4.221537,5.627321
257.919824,-0.530010,-6.221638,18.901205
258.019824,-2.383850,0.828515,8.677571
258.119824,1.468595,-8.139485,25.625036
258.219824,-2.498107,-4.819444,16.114164
258.319824,-0.438485,5.199604,0.745962
258.419824,1.256830,-0.825524,12.075080
258.519824,-0.487538,2.457429,2.813062
258.619824,-3.918247,1.054936,8.583354
258.719824,-1.038784,-1.254736,11.470294
258.819824,0.942772,1.323231,10.019048
258.919824,1.048954,-0.522533,10.352248
259.019824,1.290928,1.479064,9.369396
259.119824,5.848657,-3.623332,17.450556
259.219824,0.609572,-3.110370,15.229119
259.319824,-1.900200,-0.284447,10.987244
259.419824,0.035892,1.605584,8.642576
259.519824,1.500898,-1.742872,10.478170
259.619824,0.162413,1.628914,7.257431
259.719824,0.647857,1.392025,8.086544
259.819824,0.882652,-0.535693,11.244771
259.919824,2.386541,0.483051,7.069295
260.019824,-3.615854,0.490529,7.838289
260.119824,-2.617748,-1.677668,9.964611
260.219824,1.124028,1.911865,9.118748
260.319824,2.027020,18.215662,-19.474287
260.419824,2.072783,-6.521937,19.168005
260.519824,0.384048,-11.586047,21.999311
260.619824,-2.215455,3.912265,4.202694
260.719824,0.831207,-0.056231,10.890634
260.819824,1.779064,-4.207181,13.698910
260.919824,1.905285,2.030908,4.786842
261.019824,1.901995,-4.461717,14.581562
261.119824,0.232403,2.098206,2.473580
261.219824,-1.968994,-0.477966,9.490233
261.319824,-0.108873,0.332901,8.259127
261.419824,-4.208377,-0.078963,7.184450
261.519824,-0.448355,-0.800698,11.529218
261.619824,2.839084,2.953640,8.330911
261.719824,0.392423,-6.704390,16.884056
261.819824,-1.467997,0.436092,8.139485
261.919824,3.023331,-0.921237,11.201401
262.019824,-0.119940,-2.007578,13.194024
262.119824,0.804287,-0.183051,9.994521
262.219824,-0.561715,-1.384846,10.893624
262.319824,1.804188,-3.396911,13.455141
262.419824,0.814158,1.016351,8.568698
262.519824,-3.034997,-25.541288,38.535812
262.619824,1.080359,9.344870,-3.936791
262.719824,-0.281755,1.778764,7.692028
262.819824,-0.871885,-7.144670,18.845871
262.919824,0.213559,-0.269791,7.906783
263.019824,0.065204,10.290334,9.694521
263.119824,-4.085146,-3.488436,14.564513
263.219824,1.712962,6.255137,-2.340480
263.319824,3.421736,-5.501099,18.239290
263.419824,-1.541277,0.712463,9.454640
263.519824,0.069392,2.177170,5.938687
263.619824,0.916152,-2.097010,13.228720
263.719824,3.966104,-1.091127,12.748361
263.819824,0.650250,4.765605,4.734200
263.919824,0.628116,3.980460,10.951949
264.019824,-1.236790,-3.774678,14.470595
264.119824,-0.144766,-3.780061,15.347265
264.219824,0.516850,-2.708675,14.174184
264.319824,-1.884647,-1.263709,9.889835
264.419824,-1.451546,-0.876072,10.827522
264.519824,0.969392,2.447858,7.745567
264.619824,2.186741,0.134895,11.032408
264.719824,-0.676571,-1.643869,10.793126
264.819824,-0.870688,-1.294517,10.447961
264.919824,-0.302094,-7.025626,18.608383
265.019824,-3.759722,12.933207,-8.221439
265.119824,3.463910,-1.922334,15.207584
265.219824,4.126423,-8.387741,18.392731
265.319824,-0.412164,2.314458,11.669796
265.419824,0.107378,-0.276969,8.434999
265.519824,-3.969095,5.657829,-6.515357
265.619824,-4.744967,0.054437,7.889435
265.719824,0.211466,3.569792,0.760319
265.819824,-1.582852,4.849354,5.245666
265.919824,-2.166701,-2.518745,12.305091
266.019824,1.292124,3.391527,7.963015
266.119824,-1.114158,-2.613860,12.356835
266.219824,-1.106980,1.056132,6.563512
266.319824,1.075574,1.741676,4.916353
266.419824,-1.761117,1.219741,6.819844
266.519824,0.088235,-3.122334,13.410275
266.619824,-1.022034,2.729313,7.509275
266.719824,0.381057,0.731905,9.575478
266.819824,-1.608276,-1.272084,9.725926
266.919824,-1.114457,1.719841,7.903194
267.019824,-0.125922,-0.769891,9.929317
267.119824,-0.932004,-0.744766,8.934201
267.219824,2.155933,-2.280360,11.305788
267.319824,0.363410,1.881955,6.102595
267.419824,-0.842573,-0.846162,11.347064
267.519824,-0.297906,-0.700798,11.239088
267.619824,-0.839881,1.042373,10.721939
267.719824,-0.343071,-0.483649,12.345469
267.819824,0.217747,0.391825,11.105988
267.919824,1.065105,-0.453141,9.302397
268.019824,0.657727,-0.346959,8.044071
268.119824,-2.533700,1.684248,7.080661
268.219824,-1.976472,-1.847558,12.262020
268.319824,0.232104,-2.525923,13.199109
268.419824,1.908575,0.513560,11.132607
268.519824,1.317847,1.195514,9.440882
268.619824,-3.889234,2.933301,5.263911
268.719824,-1.974677,-1.413560,11.046466
268.819824,1.441975,-2.773581,12.030215
268.919824,-0.471984,-1.635494,11.639886
269.019824,-3.693920,0.147458,5.542675
269.119824,-1.572084,2.244169,6.135796
269.219824,-0.321536,-1.342673,11.336296
269.319824,0.708275,-2.992225,14.030315
269.419824,1.833799,-2.432005,9.677173
269.519824,0.171984,3.631706,4.565506
269.619824,0.269791,-2.164308,12.199806
269.719824,-0.988535,1.036092,9.422636
269.819824,-1.119542,0.666700,8.499605
269.919824,3.351746,-0.817149,11.763116
270.019824,0.472882,4.754838,3.193521
270.119824,-0.044566,-3.046661,13.464413
270.219824,-1.147957,1.788934,7.368099
270.319824,1.577169,-3.206980,12.367603
270.419824,1.836192,0.062512,9.759426
270.519824,-0.483051,-3.143870,13.348660
270.619824,-0.421137,0.597009,6.309275
270.719824,-0.393619,1.443769,8.248658
270.819824,3.517449,0.751645,6.365806
270.919824,-0.209372,-1.526322,13.707883
271.019824,1.049851,0.162712,9.122935
271.119824,-0.254537,-0.350848,10.300204
271.219824,1.315454,-2.516950,12.944273
271.319824,1.650449,-0.276670,13.241880
271.419824,-0.126221,0.261715,9.241979
271.519824,-0.930808,-0.761815,8.481359
271.619824,-1.253241,-1.352543,10.753644
271.719824,3.442973,0.470190,10.364212
271.819824,-0.233898,-2.290529,13.330415
271.919824,-0.954437,-1.540978,10.957334
272.019824,-1.626222,-0.201595,10.776376
272.119824,2.707778,-2.382055,11.758630
272.219824,3.308676,0.594916,7.197910
272.319824,3.053840,1.659123,8.857332
272.419824,0.165404,-0.348455,7.957332
272.519824,-1.402792,1.459921,9.082557
272.619824,2.711068,-1.575674,12.728022
272.719824,-0.805783,-0.270688,10.005588
272.819824,-0.275474,-0.039781,10.184751
272.919824,0.528814,-0.030808,10.478470
273.019824,3.423830,-1.721935,14.309678
273.119824,3.929613,-0.031107,12.562319
273.219824,0.713360,-2.414956,13.628322
273.319824,-0.773181,-0.758525,9.653843
273.419824,-2.437090,0.347557,9.531809
273.519824,2.873780,-1.063909,11.249557
273.619824,-0.209372,1.464407,7.305886
273.719824,-0.321236,0.882353,8.549256
273.819824,-0.883849,0.164207,9.345169
273.919824,2.191826,0.773181,8.438888
274.019824,2.244169,-3.877569,14.599808
274.119824,-0.469591,0.505783,7.974679
274.219824,0.464507,4.995615,4.423432
274.319824,-0.121735,0.109771,8.222935
274.419824,-0.832104,-1.039981,10.191331
274.519824,-1.096810,1.416252,7.346564
274.619824,0.267996,1.939981,6.425925
274.719824,0.492622,-1.098904,11.526825
274.819824,2.482853,0.406780,9.506984
274.919824,-2.775973,1.620240,6.448956
275.019824,0.347557,1.945664,8.472686
275.119824,-0.751047,-3.610470,14.854045
275.219824,-0.428315,0.867697,8.076674
275.319824,-4.106084,0.691526,4.948058
275.419824,-1.054338,-1.137488,10.642378
275.519824,-1.286441,-0.674477,10.139287
275.619824,-1.702194,-0.207278,9.457631
275.719824,1.995016,-0.058325,9.490233
275.819824,-2.904289,0.210867,7.238887
275.919824,1.781456,1.098006,7.502696
276.019824,0.535394,3.200400,6.045765
276.119824,0.655334,-0.060120,8.996116
276.219824,-3.358027,-1.113859,11.389537
276.319824,-0.512064,3.714558,4.572086
276.419824,-0.308375,1.451845,7.520941
276.519824,-0.227318,-0.906581,10.183853
276.619824,2.192125,3.450749,4.899005
276.719824,-4.087838,1.604687,8.216654
276.819824,0.227916,2.389533,6.108278
276.919824,-1.174577,-1.344467,8.344071
277.019824,0.044267,0.504287,11.629118
277.119824,1.975574,-1.833201,14.140984
277.219824,0.337388,0.565005,10.118051
277.319824,-0.522832,-3.020041,13.643576
277.419824,0.968196,1.737787,6.688239
277.519824,-1.076471,12.745968,-11.768201
277.619824,-3.650550,-38.263927,61.936119
277.719824,-2.481955,11.135000,-7.965108
277.819824,-0.393619,-3.090031,8.312965
277.919824,2.280360,-3.963711,10.934601
278.019824,1.992025,4.360022,6.281458
278.119824,0.107677,-3.378666,11.520843
278.219824,-1.743171,1.001695,9.544372
278.319824,2.853740,7.981260,3.043072
278.419824,2.289632,-5.415257,15.080167
278.519824,-1.337588,1.174577,8.120941
278.619824,-1.823331,1.128814,9.014062
278.719824,-1.287937,-0.595215,7.891828
278.819824,2.705983,2.223231,5.782854
278.919824,4.448855,2.524727,11.013564
279.019824,0.001795,-7.109375,16.730915
279.119824,-0.065504,4.786842,4.220341
279.219824,-1.642374,-3.161816,12.599109
279.319824,1.832603,-3.624229,14.494523
279.419824,-1.072583,2.661417,8.050951
279.519824,-2.385345,3.518945,3.110669
279.619824,-0.156730,-9.878469,22.624437
279.719824,-1.660918,5.636294,0.872483
279.819824,0.658325,0.639183,8.493324
279.919824,3.958626,-7.273882,21.630518
280.019824,-2.943770,3.354737,3.761517
280.119824,2.232204,1.537987,11.044671
280.219824,-1.920539,-10.179068,21.824636
280.319824,0.087936,7.107880,-1.732404
280.419824,-0.966700,-5.627919,14.103895
280.519824,-1.712663,-7.211070,15.991234
280.619824,-0.401695,12.479467,-9.140582
280.719824,-5.041378,-9.039486,19.715662
280.819824,0.143868,-5.086244,19.014267
280.919824,-3.224329,5.687739,-3.737888
281.019824,-1.454238,-13.671093,18.973886
281.119824,3.928118,0.312862,11.581262
281.219824,3.213561,12.969996,-9.256036
281.319824,-0.219242,-14.777474,23.222942
281.419824,-2.535794,2.164308,10.130014
281.519824,3.260819,4.634000,9.200702
281.619824,1.403690,-5.642874,13.309478
281.719824,-0.681057,5.033302,2.309373
281.819824,0.942174,-4.402494,18.528223
281.919824,-1.944767,-4.575675,15.091533
282.019824,1.002294,0.759123,7.272985
282.119824,0.766301,1.483550,9.356833
282.219824,1.463510,-2.362015,12.306885
282.319824,-0.329611,3.879364,2.291128
282.419824,-1.432403,5.176573,2.939583
282.519824,-0.804587,-4.055236,16.750656
282.619824,1.351646,4.992924,0.858126
282.719824,-1.149153,-0.165404,10.060324
282.819824,-1.677668,-0.183051,4.751847
282.919824,0.015852,0.894317,6.769594
283.019824,0.653540,2.326422,5.398208
283.119824,0.906581,-2.552544,11.378171
283.219824,2.653640,2.696113,5.735895
283.319824,-0.764208,0.037687,8.855238
283.419824,-0.073280,-0.275773,8.656933
283.519824,-0.926321,0.916451,8.415856
283.619824,0.898505,-0.540479,9.310772
283.719824,-2.896512,-0.173779,9.072986
283.819824,-0.313460,-3.511168,13.853845
283.919824,2.520540,1.695614,6.176174
284.019824,-0.557528,1.089931,8.752347
284.119824,1.210768,-5.144569,17.836399
284.219824,1.157528,1.688136,6.992127
284.319824,0.901795,3.037987,9.734900
284.419824,-0.922433,-4.369892,14.101203
284.519824,-2.005185,-0.949651,8.244471
284.619824,-3.002992,3.844369,8.480164
284.719824,1.236491,-5.438886,16.095322
284.819824,-1.728515,-2.426023,13.030714
284.919824,-0.268893,-0.597607,9.237791
285.019824,-1.434198,4.550550,4.650451
285.119824,1.453640,-0.549153,10.078569
285.219824,-1.651646,-0.221934,8.065009
285.319824,-1.637887,-3.142673,16.081265
285.419824,1.261616,2.097010,6.747760
285.519824,-0.208475,1.561915,7.277471
285.619824,1.872683,-1.690529,13.018750
285.719824,2.717947,-1.582553,12.494721
285.819824,2.121536,-0.159721,10.048060
285.919824,-1.150649,-1.192224,11.315359
286.019824,0.860818,-6.099305,15.407385
286.119824,-0.707677,-0.400499,11.661720
286.219824,1.746162,5.566902,4.085445
286.319824,0.803689,-0.588634,10.104591
286.419824,2.320440,-0.947558,9.974780
286.519824,-2.143670,-0.466900,12.303595
286.619824,0.195613,0.813859,7.390831
286.719824,-0.565603,1.194018,8.498408
286.819824,1.419542,-2.828615,13.168900
286.919824,0.514756,-0.139980,9.169596
287.019824,2.706582,4.633402,8.938389
287.119824,-1.295713,-1.178465,10.258329
287.219824,0.319143,-4.939683,14.628521
287.319824,-2.679961,0.370289,7.905288
287.419824,0.721436,4.501797,6.417850
287.519824,-2.012065,1.462314,8.029715
287.619824,0.481556,-3.308975,11.830115
287.719824,-1.019043,-0.816252,11.324930
287.819824,-0.335892,1.737787,6.837192
287.919824,-0.041276,-2.037189,9.636196
288.019824,-0.827917,-1.778166,11.565708
288.119824,-0.944866,1.571785,6.067002
288.219824,0.710967,-1.582553,8.327023
288.319824,-1.625923,4.046263,6.512665
288.419824,-0.536890,0.235095,8.643773
288.519824,0.531207,-8.793623,21.289242
288.619824,-0.015852,-0.334397,9.751350
288.719824,1.009472,2.904887,6.193821
288.819824,-1.396212,3.497709,6.355935
288.919824,-5.210072,-1.249053,7.956734
289.019824,0.284148,-5.234300,17.769100
289.119824,4.595715,-7.251150,18.962820
289.219824,-1.165305,1.132702,8.839984
289.319824,-1.152443,8.292626,-6.047261
289.419824,-1.762015,-2.446960,11.459527
289.519824,1.745564,-2.970091,13.374084
289.619824,-0.236889,-3.934399,14.014164
289.719824,0.947857,-0.549153,11.988640
289.819824,0.679861,-0.793221,10.215558
289.919824,0.632902,0.091226,10.777573
290.019824,0.841376,3.557828,5.698806
290.119824,0.647857,0.265902,8.642576
290.219824,-1.989632,-1.899303,9.614660
290.319824,-1.812563,-3.059224,9.746864
290.419824,-0.996312,-0.330509,10.271490
290.519824,0.999901,2.938685,7.464410
290.619824,2.199303,-0.947558,10.584950
290.719824,1.142872,2.215754,7.895417
290.819824,1.791028,-0.114257,9.824033
290.919824,-1.141675,-0.120838,10.377672
291.019824,0.766002,-3.127120,11.717054
291.119824,-3.651148,-1.801795,7.410273
291.219824,-0.165105,-2.251646,17.163418
291.319824,-0.224925,6.293423,-1.824527
291.419824,-1.560719,-0.270389,14.902201
291.519824,-1.025324,1.449452,5.557929
291.619824,-0.393320,-3.764508,15.309877
291.719824,-0.064606,2.231307,6.265905
291.819824,0.886541,-13.859528,31.246376
291.919824,-0.212363,14.493327,-11.696416
292.019824,-0.514457,-2.218446,10.952249
292.119824,-0.162114,2.508575,6.404689
292.219824,-0.256630,-2.330310,12.598809
292.319824,-0.479163,-5.108078,14.097613
292.419824,0.790828,0.709771,11.002198
292.519824,0.619741,-0.381356,14.151452
292.619824,-1.726122,-1.712065,11.663814
292.719824,-1.479662,-3.656831,12.068201
292.819824,-0.514158,-2.363211,16.387245
292.919824,2.819942,2.160121,8.601898
293.019824,3.806682,1.484148,12.185150
293.119824,-0.712762,-3.647559,13.218551
293.219824,1.272084,-2.552544,12.403196
293.319824,-0.980758,5.699704,0.220439
293.419824,1.512563,1.106980,7.058527
293.519824,0.477966,1.526920,9.493524
293.619824,2.765804,-6.798308,16.166508
293.719824,1.897807,-1.505684,16.563417
293.819824,-1.016651,5.162814,3.584448
293.919824,-1.680061,-5.887540,13.328919
294.019824,1.559223,-0.549751,6.915855
294.119824,0.816551,0.585643,8.827422
294.219824,1.848456,3.176173,4.802694
294.319824,-0.671486,4.324728,4.086044
294.419824,-2.698506,-2.666502,13.439887
294.519824,0.995414,-3.831507,14.725430
294.619824,1.045963,2.833700,2.896512
294.719824,-1.123729,2.858227,8.277371
294.819824,-2.188236,0.522533,9.742377
294.919824,1.349552,-4.069294,15.620944
295.019824,-0.486640,4.444668,1.788934
295.119824,-2.056033,-1.269093,9.633504
295.219824,-0.481556,-1.783550,10.844571
295.319824,-0.257528,-0.707079,10.888539
295.419824,-0.245264,-1.165903,11.697911
295.519824,2.000998,6.499804,5.860920
295.619824,-0.202493,-5.166702,14.067105
295.719824,0.326022,-1.735993,12.979268
295.819824,3.431906,1.073480,8.295617
295.919824,0.519243,-0.405883,9.704092
296.019824,-0.930808,-3.868297,14.137693
296.119824,-1.047458,0.267398,8.263015
296.219824,-0.033500,2.515156,7.395019
296.319824,-0.851845,-1.332503,9.002995
296.419824,0.320040,-5.624629,18.177376
296.519824,-0.001496,1.149452,8.164310
296.619824,2.469991,1.231406,10.594222
296.719824,-0.052044,-4.557729,16.718653
296.819824,0.117547,-1.312463,14.676976
296.919824,-1.599303,-0.159123,6.197112
297.019824,1.735993,3.556931,3.631407
297.119824,0.567099,0.498904,6.606883
297.219824,2.266302,-8.533105,18.384655
297.319824,-1.462912,-0.883550,7.971689
297.419824,8.177173,-10.475180,18.720547
297.519824,-1.485345,-1.573281,12.427423
297.619824,0.464806,-0.300897,1.575076
297.719824,3.544668,4.368098,6.320940
297.819824,0.432503,-3.788436,17.607885
297.919824,-0.463609,-4.507480,17.680866
298.019824,1.467099,-0.237488,8.240881
298.119824,3.738486,-6.188138,17.554644
298.219824,-1.488336,-3.199503,15.467505
298.319824,-1.523032,7.457830,1.089033
298.419824,-1.156631,-7.541280,17.104195
298.519824,-1.666900,-3.623033,13.250256
298.619824,-0.368794,0.545863,10.127921
298.719824,1.922334,7.649854,-5.224130
298.819824,0.451047,-2.848655,13.011272
298.919824,-1.787439,-1.594517,9.901500
299.019824,2.024029,4.452146,2.853142
299.119824,-1.613660,-2.361417,10.838590
299.219824,3.220440,0.218046,8.110473
299.319824,0.949352,1.060020,6.935297
299.419824,2.727818,7.363613,-2.012364
299.519824,1.794318,-2.040779,14.019249
299.619824,2.790629,-6.138487,17.738293
299.719824,1.519143,4.169194,6.543473
299.819824,1.600200,4.355237,5.586044
299.919824,0.698405,-3.280261,18.722042
300.019824,0.840479,-1.208076,10.212866
300.119824,0.008674,5.466104,3.198905
300.219824,0.093619,-3.467499,11.496017
300.319824,0.148056,1.587638,4.797310
300.419824,1.351347,-1.530210,9.998409
300.519824,3.163910,-5.096413,14.146069
300.619824,-0.792623,-0.025723,9.651750
300.719824,-1.353440,-7.328917,20.600409
300.819824,-3.072384,3.502793,4.205087
300.919824,-1.182952,1.553839,5.317450
301.019824,-1.329213,-3.549453,15.467505
301.119824,0.326919,-0.913460,10.004690
301.219824,1.232304,6.037690,-2.253142
301.319824,-0.964008,-1.759622,11.844173
301.419824,0.452543,-0.084347,8.983852
301.519824,0.246461,-3.943073,14.090435
301.619824,1.216750,-1.909772,11.400005
301.719824,-2.141875,1.943570,5.442176
301.819824,2.267798,-0.470190,10.066306
301.919824,-0.703789,-0.295813,11.014163
302.019824,-1.467099,-3.194717,11.624930
302.119824,-0.854836,-1.205983,10.242178
302.219824,0.316451,-0.811765,11.252847
302.319824,-7.030113,-7.569695,20.963221
302.419824,2.520540,3.038885,4.741976
302.519824,0.009870,-12.750155,23.878576
302.619824,2.625824,1.376172,5.591727
302.719824,-2.269293,1.002593,14.719448
302.819824,3.305385,7.630113,0.418146
302.919824,-4.208676,-10.560722,21.880568
303.019824,-3.759124,-2.921936,13.552649
303.119824,0.292223,7.775477,6.670890
303.219824,-2.553740,2.769393,9.726525
303.319824,-1.277468,-2.830410,10.565509
303.419824,0.824028,1.990828,7.408179
303.519824,0.687936,-0.601496,8.666505
303.619824,-1.756930,-1.094716,9.417552
303.719824,0.424726,-5.160421,13.518551
303.819824,-2.749353,-0.435494,10.496117
303.919824,1.291227,1.338485,7.687840
304.019824,-0.506680,0.860818,10.067502
304.119824,-0.471984,-2.580659,11.002498
304.219824,1.396511,-1.983949,12.698112
304.319824,0.893719,-2.685345,15.247664
304.419824,0.922433,3.107080,6.629614
304.519824,0.119641,0.224028,7.230811
304.619824,-3.579962,-6.163014,18.790537
304.719824,-5.538188,4.489234,-0.167498
