Time (s),Gyroscope x (rad/s),Gyroscope y (rad/s),Gyroscope z (rad/s)
0.084940,0.000153,-0.003360,-0.001374
0.189725,0.000153,-0.002443,-0.003207
0.294512,0.001374,0.007788,-0.015271
0.399298,-0.001985,-0.007330,0.000764
0.504085,0.003360,-0.014966,0.048104
0.608870,-0.003207,0.006108,-0.012064
0.713657,0.003665,0.055587,0.006872
0.818443,0.012828,-0.054976,0.097125
0.923230,-0.000916,-0.013133,0.039400
1.028015,-0.002138,-0.008399,0.050089
1.132802,0.030084,-0.052075,0.266788
1.237587,0.001985,-0.031000,0.123697
1.342374,-0.002443,-0.027641,0.006261
1.447160,-0.055282,-0.072844,0.133623
1.551947,-0.025045,-0.044134,-0.254418
1.656732,0.021380,0.072080,-0.155766
1.761519,0.023365,-0.183407,0.220363
1.866304,-0.056962,-0.272591,0.700031
1.971092,0.065819,-0.217920,0.549152
2.075877,0.008857,0.041996,-0.066735
2.180664,-0.049173,0.229373,-0.335050
2.285449,0.008246,0.096514,-0.170121
2.390236,0.016187,0.103386,-0.390026
2.495022,-0.033902,0.123849,-0.444239
2.599809,-0.022296,-0.093154,0.202954
2.704594,0.059405,0.031459,-0.213491
2.809381,0.065208,0.285266,-0.944828
2.914167,0.007025,-0.077119,-0.049173
3.018954,0.134845,-0.229526,0.241743
3.123739,-0.019700,0.273049,-0.946508
3.228527,-0.080174,0.305576,-1.204133
3.333312,0.058641,-0.002138,-0.682316
3.438099,-0.047341,-0.191195,-0.086129
3.542884,-0.017715,-0.295345,0.360858
3.647672,0.004429,-0.265871,0.331995
3.752457,-0.003054,-0.117894,0.037567
3.857244,0.091016,-0.183101,-0.028252
3.962030,0.069331,-0.109953,0.267246
4.066817,-0.066124,-0.251364,0.873512
4.171602,-0.175313,-0.212117,0.907719
4.276389,0.231511,0.040010,0.408657
4.381175,-0.052075,0.175771,-0.096361
4.485962,0.066582,0.293970,-0.567935
4.590748,-0.061237,0.019700,0.281448
4.695535,0.044897,-0.203259,0.779441
4.800320,0.099874,0.062459,0.274881
4.905107,0.023059,0.254723,-0.398731
5.009893,0.003207,0.219294,-0.481500
5.114680,-0.028404,0.020769,-0.001374
5.219466,-0.064903,0.038942,-0.316266
5.324253,-0.015118,0.158209,-0.470352
5.429038,-0.072691,-0.188141,0.215018
5.533826,-0.062001,-0.252280,0.414460
5.638611,-0.184476,-0.174550,0.347267
5.743398,-0.065972,-0.107051,0.298399
5.848184,-0.145840,0.036498,0.078952
5.952971,0.274270,0.129194,0.038178
6.057757,0.092391,0.198678,-0.361469
6.162544,0.152101,0.310005,-0.872443
6.267329,0.313517,0.046577,-0.188446
6.372117,-0.144313,-0.259305,0.206466
6.476902,-0.263581,0.192570,-0.278852
6.581689,-0.182796,0.197304,-0.638641
6.686475,0.133776,0.012675,-0.267398
6.791262,0.142938,-0.057878,0.086893
6.896048,0.098805,-0.100026,0.155155
7.000835,-0.141106,-0.313823,0.293665
7.105621,0.035887,-0.178826,0.574655
7.210408,-0.014355,-0.026419,0.246477
7.315194,-0.023212,0.218989,-0.433854
7.419981,-0.097430,0.155002,-0.591147
7.524766,-0.017409,-0.026419,-0.027641
7.629554,0.168747,-0.297941,0.391095
7.734339,0.077425,-0.093612,0.267704
7.839127,0.233802,-0.068568,-0.049479
7.943912,-0.048410,0.144771,-0.318862
8.048699,-0.031306,-0.021074,-0.016340
8.153485,-0.077883,-0.216087,0.408351
8.258272,-0.047799,0.124918,0.111174
8.363058,-0.162180,0.166303,-0.310616
8.467845,0.070858,-0.000764,-0.023518
8.573130,-0.004581,-0.009621,0.316266
8.679913,0.040927,0.047952,0.087046
8.784699,-0.003971,0.086435,-0.068568
8.889486,-0.025197,0.159126,-0.115297
8.994272,0.109189,0.264955,-0.408962
9.099059,0.078188,0.174091,-0.593744
9.203845,-0.004734,-0.015577,-0.417667
9.308632,-0.026114,-0.225097,0.057420
9.413418,-0.273965,-0.352917,0.372159
9.518205,0.020005,-0.206619,0.288931
9.622991,0.159126,-0.041843,0.250142
9.727779,0.056045,-0.029932,-0.130110
9.832564,-0.014049,0.209826,-0.583970
9.937352,0.054518,-0.062001,-0.132554
10.042137,-0.021227,-0.176535,0.181574
10.146925,-0.044897,-0.221279,0.296414
10.251710,0.007177,-0.082006,0.270758
10.356498,0.062001,0.021074,0.251822
10.461284,0.109800,0.055129,0.226930
10.566071,-0.104149,0.201427,-0.130874
10.670857,-0.098805,0.052075,0.011301
10.775644,0.098957,0.030848,0.118810
10.880430,-0.057114,0.064139,-0.115145
10.985217,-0.117894,-0.032222,-0.032680
11.090003,-0.003512,-0.127514,0.268315
11.194790,0.048715,-0.030390,0.074371
11.299576,0.040927,0.159889,-0.253349
11.404364,0.208604,0.100943,-0.243117
11.510547,-0.100484,-0.042148,-0.115145
11.616431,0.057725,-0.067193,-0.009163
11.721218,-0.063528,-0.090711,0.201885
11.826004,0.032528,0.030237,0.227846
11.930791,-0.102470,0.030848,-0.038942
12.035577,0.040316,0.167983,-0.226472
12.140364,-0.065972,0.069178,0.017256
12.245150,0.108425,-0.106440,0.099110
12.349938,-0.078799,-0.010384,-0.093612
12.454723,0.001222,-0.034513,-0.020616
12.559511,0.062459,0.063681,-0.050395
12.664296,-0.100790,0.036804,-0.212728
12.769084,-0.182796,-0.043828,0.002291
12.873869,0.012828,-0.040469,0.117741
12.978657,0.035429,-0.019394,-0.054824
13.083443,0.021991,0.053907,-0.108120
13.188230,0.059558,-0.100179,0.179742
13.293016,-0.025808,-0.084450,0.213186
13.397803,0.013133,-0.027488,0.029626
13.502589,-0.020311,0.031917,0.124155
13.607376,0.017104,0.010690,0.207230
13.712162,-0.038636,0.045814,0.005498
13.816949,-0.037873,0.107509,-0.091474
13.921735,-0.019700,0.064750,-0.102164
14.026523,0.010384,0.060932,0.057114
14.131308,0.100026,0.069484,0.039247
14.236096,0.080785,0.150574,-0.142327
14.340881,0.051464,0.111632,-0.063375
14.445968,-0.013133,0.002902,0.086740
14.552849,-0.039247,-0.065361,0.223570
14.657737,-0.025197,-0.064903,0.139120
14.762523,0.006719,-0.020311,0.021227
14.867310,0.050548,-0.014355,-0.002596
14.972096,-0.011759,0.010232,-0.008094
15.076883,-0.007330,-0.017562,0.043828
15.181669,-0.006108,-0.031764,0.090405
15.286456,0.003207,-0.007025,0.036651
15.391242,0.008857,0.074371,-0.155919
15.496030,-0.017104,0.006108,-0.130721
15.600815,0.014049,0.014049,0.005803
15.705603,0.012981,-0.027641,0.066735
15.810389,0.014508,0.026114,-0.055587
15.915176,-0.029779,-0.037262,-0.001680
16.019962,0.008552,-0.057420,0.006414
16.124749,0.003207,-0.033597,-0.018173
16.229535,0.003360,-0.056503,0.041690
16.334322,-0.001069,-0.022754,-0.005039
16.439108,-0.000458,-0.028863,0.014508
16.543895,0.003971,-0.030237,0.032222
16.648681,-0.001985,-0.003818,-0.021685
16.753469,0.000458,-0.004581,-0.009621
16.858254,0.002138,-0.004276,0.005650
16.963042,0.002749,0.002138,-0.001069
17.067828,0.003054,0.014049,0.001222
17.172615,-0.005192,-0.010843,0.076661
17.277401,0.028863,-0.009010,0.106898
17.382188,0.001527,0.045050,-0.066735
17.488720,0.022754,0.043370,-0.044897
17.594256,0.007177,-0.010079,0.034971
17.699043,0.013286,-0.052991,0.258694
17.803829,0.007636,-0.101553,0.318404
17.908616,-0.023212,-0.010079,0.048715
18.013402,0.003665,0.058641,-0.273354
18.118190,-0.016187,0.106898,-0.515555
18.222975,0.006414,0.217156,-0.770737
18.327763,0.079563,-0.022907,0.026572
18.432549,0.046883,-0.364981,0.908941
18.537336,-0.062154,-0.107967,0.334592
18.642122,0.137135,0.107051,-0.105982
18.746909,-0.163096,-0.163707,0.652385
18.851695,0.107662,-0.266024,0.818383
18.956482,-0.053449,0.086893,0.062001
19.061268,0.020616,0.148283,-0.014508
19.166056,-0.098041,0.063986,-0.065819
19.270841,-0.045814,0.168747,-0.451263
19.375629,0.103386,0.095445,-0.209368
19.481961,-0.068262,-0.114381,-0.122017
19.588842,-0.020311,0.005956,-0.083991
19.694978,0.150727,-0.070095,0.081701
19.799764,0.032222,-0.059710,-0.105524
19.904551,-0.000916,0.187988,-0.895197
20.009337,-0.036498,0.183254,-0.699115
20.114124,0.111938,-0.095139,0.134845
20.218910,-0.023976,-0.172259,0.083991
20.323698,0.000611,0.000000,-0.133776
20.428483,0.044439,-0.030695,-0.145992
20.533271,-0.050548,-0.105677,0.017867
20.638056,0.035429,-0.262817,0.423012
20.742844,-0.097430,-0.200816,0.789825
20.847629,0.031459,-0.076050,0.430495
20.952417,0.113618,0.062917,0.235482
21.057202,0.065208,0.060168,0.238994
21.161990,0.017256,0.206314,-0.158057
21.266775,0.243881,0.259457,-0.358567
21.371563,0.215629,0.144313,-0.496161
21.476349,-0.101859,-0.011301,-0.143702
21.581136,-0.226013,-0.284808,0.519678
21.685922,-0.176382,-0.189057,0.332759
21.790709,-0.075745,0.018478,0.263428
21.895495,-0.080785,-0.372006,0.917798
22.000282,0.019853,-0.107204,0.584428
22.105068,0.096361,0.077119,0.016493
22.209855,0.016646,0.099874,0.019547
22.314641,-0.015118,0.099568,-0.043981
22.419777,0.125224,-0.043370,-0.005650
22.526658,-0.049479,0.124460,-0.251669
22.631496,-0.078036,-0.021227,-0.105524
22.736282,-0.013133,-0.068568,0.424997
22.841069,0.035124,-0.098957,0.524565
22.945854,-0.158973,0.230137,-0.019547
23.050642,-0.012370,0.204481,-0.321153
23.155427,0.053144,0.171953,0.037873
23.260215,-0.025808,0.002138,0.295192
23.365000,-0.020922,0.234871,-0.093765
23.469788,0.003971,0.326498,-0.348641
23.574573,0.034513,0.353681,-0.927724
23.679361,0.055893,0.082312,-0.557245
23.784146,0.033291,-0.177298,-0.021838
23.888934,0.277477,-0.062154,-0.217767
23.993719,-0.278699,-0.091474,-0.172412
24.098506,0.140953,-0.460426,0.773333
24.203292,-0.115297,-0.259916,0.452332
24.308079,0.154544,0.117588,-0.184934
24.412865,-0.255640,0.079257,-0.173786
24.517652,0.280226,-0.034055,-0.065055
24.622438,-0.204176,-0.002443,0.050853
24.727225,-0.106746,0.113007,-0.025808
24.832011,-0.013286,0.127056,-0.268773
24.936798,0.122169,0.204939,-0.296719
25.041584,-0.024434,-0.047646,0.118352
25.146371,0.004123,0.112854,-0.070095
25.251156,0.062917,0.277936,-0.401174
25.355944,0.173786,0.193639,-0.674070
25.460729,-0.008705,0.073302,-0.638641
25.565517,0.076203,-0.212880,-0.105982
25.670302,-0.025503,-0.318862,0.248615
25.775089,0.036040,-0.225708,0.200052
25.879875,-0.123544,-0.111938,-0.184629
25.984662,0.105982,-0.103080,0.026725
26.089448,0.056045,-0.170579,0.192722
26.194235,0.072080,-0.039247,0.113923
26.299021,-0.034971,0.046272,-0.112243
26.403808,-0.036040,0.080479,-0.073913
26.508593,0.060168,-0.040621,0.019853
26.613380,-0.096208,0.092543,0.057420
26.718166,0.045508,0.100943,0.044286
26.822953,0.003665,0.277019,-0.339173
26.927739,0.009621,0.094223,-0.233649
27.032526,0.007483,-0.020463,-0.130263
27.137312,-0.047188,0.026114,-0.229831
27.242099,-0.045203,-0.033749,-0.236856
27.346884,0.001833,-0.119573,-0.042301
27.451671,-0.054213,-0.215476,0.174091
27.556457,0.073760,-0.058947,0.045203
27.661244,0.003665,-0.001374,-0.176382
27.766030,0.042301,0.095598,-0.376129
27.870817,-0.206008,-0.121253,0.032528
27.975602,0.161722,-0.172412,0.259610
28.080390,0.011759,-0.033138,0.044134
28.185175,-0.006567,0.053755,-0.175313
28.289962,-0.054671,-0.078799,0.191195
28.394748,-0.006719,-0.199289,0.573433
28.499535,0.024434,0.068720,0.176535
28.604321,0.073454,0.294886,-0.266329
28.709108,-0.029626,0.289083,-0.533728
28.813893,0.008857,0.076203,-0.264650
28.918680,0.058641,-0.124460,-0.074523
29.023466,0.025656,-0.030237,-0.236092
29.128253,0.046730,-0.105066,-0.098805
29.233039,-0.037567,-0.259610,0.247393
29.337826,0.029015,-0.227235,0.445155
29.442611,-0.029932,-0.090711,0.358567
29.547399,-0.008246,0.051311,0.016951
29.652184,-0.002443,0.146756,-0.117130
29.756971,-0.009774,0.087504,-0.048868
29.861757,0.078494,0.009621,0.097888
29.966544,-0.052838,0.158515,-0.195471
30.071329,0.094987,0.173328,-0.353833
30.176117,-0.108731,-0.081701,0.043217
30.280902,0.010995,-0.112701,0.291221
30.385689,0.034971,0.038942,-0.097583
30.490475,-0.046730,0.066582,-0.178215
30.595262,0.097277,0.009926,0.132401
30.700047,0.020616,-0.066888,0.322833
30.804835,-0.058489,0.259610,-0.257014
30.909620,0.096819,0.361011,-0.775012
31.014407,-0.141106,0.124918,-0.410337
31.119193,0.127362,-0.079716,0.048410
31.223980,0.023059,0.180353,-0.087198
31.328765,-0.030390,0.262970,-0.502116
31.433552,0.051311,0.228304,-0.422706
31.538338,-0.010079,0.086893,-0.327414
31.643125,0.000916,0.233496,-0.565645
31.747910,0.141106,0.266788,-0.754091
31.852697,0.071775,0.078799,-0.412016
31.957483,0.067651,-0.026114,-0.309241
32.062270,-0.028557,0.237620,-0.667351
32.167056,0.188905,0.212880,-0.886645
32.271843,-0.223876,0.000764,-0.661700
32.376628,0.814107,0.061543,-0.628867
32.481415,0.040010,0.123238,-0.853964
32.586201,0.655897,0.076356,-0.891379
32.690988,0.166609,-0.001833,-0.578625
32.795773,-0.030695,-0.198373,-0.239910
32.900560,-0.026877,0.078341,-0.462564
33.005346,0.148283,0.125071,-0.877024
33.110133,0.079105,0.147978,-1.020878
33.214918,0.178826,0.016951,-0.671016
33.319705,0.268926,-0.162638,-0.825713
33.424491,0.356277,-0.127820,-0.942843
33.529278,0.325429,-0.544265,-0.063834
33.634063,0.245255,-0.618636,0.503033
33.738850,-0.083686,-0.262512,-0.007177
33.843636,0.087809,-0.080937,-0.406213
33.948423,-0.039400,-0.266329,-0.052227
34.053208,0.018325,-0.345434,0.211506
34.157995,-0.079868,-0.215782,0.206314
34.262780,0.162180,0.006414,0.308631
34.367567,-0.080479,-0.029626,0.142022
34.472353,-0.052838,0.137135,-0.127514
34.577140,-0.037567,0.085060,-0.249531
34.681925,-0.093460,0.012675,-0.260526
34.786712,0.214866,0.036498,-0.166761
34.891497,0.081090,-0.221279,-0.006567
34.996284,0.037567,-0.084602,0.074371
35.101070,0.030237,-0.040927,-0.155766
35.205857,-0.084144,-0.110105,-0.163402
35.310642,-0.038331,-0.159737,0.251516
35.415429,0.137593,-0.238841,0.465924
35.520214,-0.169510,-0.005956,0.091627
35.625001,0.049784,-0.001985,0.064444
35.729787,-0.205397,-0.044745,0.251058
35.834574,0.183712,0.059710,0.213186
35.939359,0.064292,0.028863,0.113159
36.044146,-0.087657,-0.011759,0.237620
36.148931,-0.016187,0.051158,0.087809
36.253718,0.066124,0.160347,-0.183865
36.358504,-0.039705,0.183712,-0.091780
36.463291,0.164471,0.059558,-0.066430
36.568076,-0.383001,0.091780,-0.220974
36.672863,0.225861,-0.105371,-0.311227
36.777648,-0.068720,-0.171648,0.190890
36.882435,0.261748,-0.218378,0.707208
36.987220,-0.302217,-0.036193,0.440421
37.092007,-0.044134,0.196540,-0.155461
37.196793,0.164165,0.210590,-0.315961
37.301579,0.030390,0.200205,-0.163554
37.406365,-0.096208,0.183560,-0.105524
37.511152,-0.106135,0.116825,-0.219294
37.615937,0.471269,0.031764,-0.295039
37.720724,-0.220974,0.098194,-0.471574
37.825509,-0.136219,-0.249837,-0.014966
37.930296,0.119573,-0.257930,0.397509
38.035081,0.283128,-0.148130,0.282822
38.139868,-0.076967,0.055129,-0.194402
38.244653,-0.173328,0.073454,-0.313059
38.349440,-0.017104,-0.036804,-0.162333
38.454226,-0.063070,-0.149810,0.244339
38.559012,-0.143702,-0.164929,0.352612
38.663798,0.262512,-0.108731,0.294734
38.768585,-0.020158,0.100790,0.161875
38.873370,-0.029932,0.127972,0.026572
38.978157,0.067804,0.155613,-0.112396
39.082942,0.166303,0.104608,-0.296414
39.187729,-0.105371,0.057114,-0.151796
39.292514,-0.262359,-0.231969,0.397814
39.397301,0.074829,-0.078341,0.047035
39.502086,0.043065,0.111327,-0.212422
39.606873,0.185392,-0.029626,-0.073302
39.711658,0.092085,0.050242,-0.115297
39.816445,-0.218072,-0.104608,0.355666
39.921230,0.005345,-0.021685,0.202496
40.026017,-0.175313,0.266024,-0.384223
40.130802,0.298552,0.197456,-0.409726
40.235589,-0.133317,-0.095903,0.051769
40.340375,0.302217,-0.002138,0.176077
40.445161,-0.319779,-0.018478,-0.034971
40.549947,-0.043523,0.038942,-0.279463
40.656778,-0.072233,-0.113770,0.049937
40.762014,0.212269,-0.129652,0.345281
40.866800,-0.072080,-0.122169,0.303133
40.971586,-0.131638,0.183254,-0.224334
41.076372,0.302217,0.134386,-0.381169
41.181158,-0.077730,0.021227,-0.288167
41.285944,-0.052991,-0.129041,0.098957
41.390731,-0.052686,-0.153323,0.403923
41.495516,0.305118,0.041996,-0.017715
41.600303,-0.196082,0.196082,-0.459815
41.705088,-0.142327,0.135455,-0.289236
41.809875,0.150727,-0.067957,0.071011
41.914660,0.083686,-0.057572,0.006872
42.019447,-0.153628,-0.156224,0.110563
42.124232,-0.055282,-0.052686,0.175008
42.229019,0.170426,0.020158,0.072385
42.333804,-0.097430,0.000916,-0.137288
42.438591,-0.037414,0.015577,-0.111480
42.543376,0.126445,0.031917,-0.074218
42.648163,-0.234871,-0.058794,0.125835
42.753547,0.134845,0.009468,0.125071
42.860230,0.109494,0.107204,-0.118657
42.965015,-0.207993,0.039400,-0.249531
43.069802,0.003512,-0.045203,-0.072233
43.174587,-0.133012,-0.012064,0.019700
43.279374,-0.161264,0.005803,-0.145076
43.384159,0.397814,-0.018784,0.024281
43.488946,-0.140495,-0.056045,0.083533
43.593731,0.174855,-0.037873,-0.176993
43.698518,0.060016,-0.204023,0.109189
43.803303,-0.093765,-0.271827,0.418736
43.908090,-0.112701,-0.016646,0.396134
44.012875,0.105829,-0.051006,0.149658
44.117662,0.022907,0.116825,-0.062765
44.222447,-0.115603,0.108578,0.107356
44.327234,0.025197,0.056351,-0.031764
44.432019,-0.175771,0.098041,-0.155155
44.536806,0.068873,0.150421,-0.121100
44.641591,0.288625,0.022907,0.093001
44.746377,0.014508,-0.001833,0.059863
44.851163,0.040621,0.111327,-0.119421
44.955949,-0.071622,-0.053602,0.024281
45.060735,-0.014202,0.006872,-0.117435
45.165521,-0.060474,-0.066277,-0.183407
45.270307,-0.105982,-0.124155,0.147672
45.375093,0.098957,-0.198220,0.359942
45.479878,0.092085,0.002749,0.183407
45.584665,-0.038331,0.129194,-0.044134
45.689450,-0.029932,0.118504,-0.160958
45.794237,0.230442,-0.042301,-0.043676
45.899022,-0.111938,0.139426,-0.038942
46.003809,-0.011148,0.066124,0.000764
46.108594,-0.213186,0.095598,-0.004276
46.213381,0.238536,0.083839,-0.298399
46.318166,-0.067346,-0.008857,-0.292290
46.422953,-0.266940,-0.164471,0.118199
46.527738,0.267704,-0.201732,0.392775
46.632524,0.090711,-0.033291,0.056351
46.737310,0.066277,0.135303,-0.366203
46.842096,-0.162791,-0.004123,-0.146298
46.946881,-0.274423,-0.114076,0.086282
47.051668,-0.142480,-0.111021,0.164318
47.156453,0.069331,-0.105524,0.324818
47.261240,0.161569,-0.053602,0.271216
47.366025,-0.006719,0.135608,-0.024739
47.470812,0.169816,0.250600,-0.298704
47.575597,0.004429,0.134692,-0.261901
47.680383,0.174702,-0.064292,0.088878
47.785169,-0.005650,-0.147672,0.176993
47.889955,-0.134234,0.027030,0.023670
47.994740,0.055893,0.038025,-0.173175
48.099527,0.034666,-0.163860,0.229220
48.204312,-0.140495,0.045355,0.086893
48.309099,0.049173,0.013897,-0.254723
48.413884,-0.229220,0.065972,-0.124002
48.518670,0.229373,-0.054671,0.102317
48.623456,0.056656,-0.011301,0.098805
48.728242,-0.080326,0.049173,-0.110411
48.833027,0.122780,0.160500,-0.284808
48.937814,-0.099415,-0.083228,-0.057114
49.042599,-0.090864,-0.163096,0.179742
49.147386,0.048257,-0.169357,0.298246
49.253618,0.018173,-0.213644,0.568546
49.359451,-0.011606,0.049784,0.260221
49.464238,0.026877,0.230442,-0.294581
49.571069,-0.011606,0.186767,-0.284655
49.676305,-0.006567,0.014049,-0.082159
49.781090,0.038789,0.015882,0.147061
49.885876,0.153934,0.069637,-0.031611
49.990661,-0.450042,0.213033,-0.371395
50.095448,0.197915,0.111327,-0.453707
50.200233,0.268926,-0.077119,-0.178062
50.305020,-0.124155,-0.162180,0.138204
50.409805,0.020769,-0.253349,0.448515
50.514591,-0.040621,-0.121406,0.193333
50.619376,-0.038331,0.048257,-0.044439
50.724163,-0.094223,-0.072233,0.176535
50.828948,0.050395,0.056198,0.151643
50.933734,-0.051006,0.103844,-0.080021
51.038519,0.176077,0.165845,-0.425150
51.143306,-0.266482,0.026114,-0.221890
51.248091,0.076661,-0.096514,0.207841
51.352877,0.099721,-0.151490,0.214866
51.457662,0.008552,0.048410,-0.107204
51.562449,-0.101095,0.085060,-0.109494
51.667234,0.102775,0.026419,-0.089184
51.772021,-0.005192,-0.053296,0.113159
51.876806,-0.013286,-0.075592,0.273049
51.981592,-0.064903,-0.031306,0.066430
52.086377,-0.218989,0.005650,0.060321
52.191164,0.246019,-0.084144,0.130416
52.295949,0.079257,0.142786,-0.060627
52.400735,0.031459,0.099721,-0.166456
52.505520,0.121253,0.052991,-0.360247
52.610307,-0.075440,-0.102470,-0.072385
52.715092,-0.129194,-0.233344,0.530368
52.819878,0.049937,0.003818,0.269231
52.924663,0.031000,0.159278,-0.221279
53.029450,-0.014202,0.116825,-0.185698
53.134235,-0.099263,-0.007177,0.125071
53.239022,0.139426,0.108120,0.015729
53.343806,0.050853,0.058947,-0.066888
53.448593,-0.009468,0.012828,-0.136983
53.553378,-0.430189,-0.048868,-0.090711
53.658165,0.222654,-0.089184,0.082770
53.762950,0.011301,-0.059252,0.173481
53.867736,-0.016493,0.054213,-0.104455
53.972521,-0.322986,0.142022,-0.420874
54.077308,0.576182,0.026419,-0.209368
54.182093,-0.077883,-0.110258,-0.063223
54.286879,-0.242964,-0.018020,0.129805
54.391664,0.428815,-0.104760,0.015577
54.496451,-0.126293,-0.034207,-0.083533
54.601236,-0.217309,-0.120490,0.117435
54.706022,0.149963,-0.144313,0.313059
54.810807,0.131790,-0.073607,0.341005
54.915594,-0.245561,0.060016,0.155613
55.020379,0.173939,0.197609,-0.119421
55.125165,0.064750,0.122780,-0.212269
55.229950,-0.194249,0.120642,-0.448056
55.334737,-0.213186,-0.150574,-0.119115
55.439522,0.363454,-0.194249,0.307562
55.544308,-0.010995,-0.155002,0.467909
55.649093,-0.271369,0.104760,0.166609
55.753880,0.195318,0.216240,-0.184934
55.858664,0.131790,0.151643,-0.139426
55.963451,-0.134692,0.213797,-0.207383
56.068236,-0.186156,0.015271,0.010232
56.173022,0.246630,0.078647,-0.241743
56.277807,0.237772,0.030542,-0.206772
56.382594,-0.563354,-0.151337,-0.029779
56.487379,0.211506,-0.083533,-0.150879
56.592165,0.107662,-0.145229,-0.078341
56.696950,-0.015118,-0.109036,0.038483
56.801737,-0.235329,-0.160806,0.276103
56.906522,0.306034,-0.132096,0.361011
57.011308,0.134692,0.183560,-0.128278
57.116093,-0.200511,0.027183,0.006414
57.220880,-0.053296,0.091780,-0.258694
57.325664,-0.027946,0.110869,-0.321764
57.430451,-0.158973,-0.130874,0.109953
57.535236,0.295497,-0.142175,0.275798
57.640022,-0.043523,-0.119115,0.240674
57.744807,-0.085671,-0.121100,0.158057
57.849594,0.168594,0.017715,-0.034055
57.954379,0.116672,0.029168,-0.000305
58.059165,0.157751,-0.003207,0.135455
58.163950,0.040316,-0.052075,0.202496
58.268737,-0.132096,0.021685,0.042148
58.373522,-0.072691,0.217309,-0.068109
58.478308,-0.094529,0.015577,0.158668
58.583093,-0.011759,0.110716,0.144007
58.687880,0.107815,0.273660,-0.199289
58.792665,0.054365,0.174702,-0.342838
58.897452,0.207535,0.088115,-0.228304
59.002237,-0.120948,-0.031459,-0.183560
59.107023,0.046424,-0.190890,0.006108
59.211808,-0.008246,-0.155613,0.033597
59.316595,-0.215171,-0.267551,0.017409
59.421380,0.102470,-0.083533,0.153323
59.526166,0.093460,-0.170274,0.396287
59.630951,-0.025503,0.015729,0.190432
59.735738,0.066430,0.179742,-0.113770
59.840523,-0.093154,0.179742,-0.096056
59.945309,0.161264,0.094529,0.013286
60.050094,-0.190279,0.102470,-0.022754
60.154881,0.090100,0.084450,-0.209368
60.259666,-0.029321,0.137441,-0.234871
60.364452,0.015882,-0.060168,-0.050700
60.469237,0.003360,-0.111021,-0.172870
60.574024,-0.023059,-0.048410,-0.143396
60.678809,0.012828,-0.195929,0.180811
60.783595,0.034818,-0.237009,0.443017
60.888380,-0.020769,0.033749,0.103386
60.993167,-0.019547,0.164623,-0.186919
61.097952,-0.100026,0.221279,-0.292749
61.202738,-0.035276,0.110563,-0.198678
61.307523,-0.010690,0.092849,-0.113923
61.412310,-0.053755,-0.076509,0.038942
61.517094,0.094987,-0.100026,0.048868
61.621881,-0.038178,-0.092696,0.034666
61.726666,0.009926,0.000000,-0.083533
61.831452,0.086129,-0.192722,-0.056045
61.936237,-0.046577,-0.185545,0.206772
62.041024,0.055282,-0.123238,0.224486
62.145809,0.206008,-0.116825,0.327109
62.250595,-0.233649,0.308172,-0.093765
62.355380,-0.019547,0.200205,-0.494634
62.460167,0.019394,0.060321,-0.255792
62.564952,0.024892,-0.150879,0.198220
62.669738,0.073149,-0.064903,0.248004
62.774523,-0.032069,0.060627,0.012522
62.879310,0.280684,-0.008705,0.122475
62.984095,-0.019089,-0.027946,0.246935
63.088881,-0.147520,0.019853,0.032986
63.193666,-0.108578,0.109036,-0.220058
63.298453,0.043676,-0.010995,-0.027335
63.403238,-0.127667,-0.047035,-0.186003
63.508024,0.136524,0.014660,-0.265871
63.612809,0.163554,-0.089031,0.193944
63.717596,-0.152559,-0.084755,-0.026114
63.822381,-0.015424,-0.048868,-0.105066
63.927167,0.058489,-0.030542,0.282822
64.031952,-0.049479,-0.205245,0.589773
64.136739,0.079257,0.181574,0.353833
64.241524,0.163402,0.267398,-0.503644
64.346310,-0.196693,0.253502,-0.359789
64.451095,0.150727,0.005650,0.029626
64.555881,-0.244033,-0.097125,-0.145534
64.660666,-0.138510,0.037567,-0.144465
64.765453,0.248462,-0.032833,-0.249989
64.870238,0.137288,-0.098805,-0.007483
64.975024,-0.344518,-0.140648,-0.000153
65.079809,0.186919,-0.106287,0.068568
65.184596,0.174397,-0.090253,0.115297
65.289380,-0.095903,0.005803,0.108120
65.394167,-0.132554,-0.065666,0.129347
65.498952,0.191348,0.004887,0.347114
65.603738,0.137593,-0.023670,0.210590
65.708523,-0.189210,0.042607,0.166456
65.813310,-0.055893,0.136219,-0.003512
65.918094,-0.054365,0.016646,-0.308631
66.022881,-0.051617,0.013439,-0.054213
66.127666,0.285113,-0.200663,0.297330
66.232452,-0.041079,0.001680,0.095598
66.337237,-0.051158,-0.032528,0.135914
66.442023,-0.094529,0.062612,0.225708
66.546808,0.206466,0.186003,-0.117894
66.651594,-0.090711,0.231817,-0.320237
66.756379,-0.149352,0.154239,-0.047035
66.861166,0.108425,-0.169510,0.356735
66.965950,0.074065,0.244797,-0.066124
67.070737,-0.114381,0.264344,-0.497688
67.175522,0.076814,0.044439,-0.536477
67.280308,0.019089,-0.295497,0.075287
67.385093,-0.131638,-0.290611,0.348183
67.489879,0.291374,-0.176535,0.175924
67.594664,0.084450,0.079716,-0.078188
67.699450,0.018631,0.126751,-0.326192
67.804235,-0.005650,0.074371,-0.241285
67.909021,-0.224639,0.011912,0.046730
68.013806,0.138662,0.088420,-0.022754
68.118592,-0.029015,0.013744,-0.133165
68.223377,-0.092085,0.008094,0.174855
68.328163,0.022907,-0.135608,0.071469
68.432948,0.109036,-0.135761,0.093154
68.537734,-0.311379,-0.174550,0.109189
68.642519,0.072844,-0.046577,-0.036345
68.747305,0.476461,-0.028252,0.031764
68.852090,-0.382696,-0.168441,0.224486
68.956876,0.025045,0.037109,0.068415
69.061661,-0.109494,0.104302,-0.175466
69.166447,0.346045,0.258694,-0.328636
69.271232,-0.215324,-0.062459,0.284349
69.376019,-0.004123,0.096208,0.074829
69.480803,0.093460,0.215629,-0.136372
69.585590,-0.177146,0.042759,-0.226930
69.690374,-0.085060,0.141258,-0.388957
69.795161,0.161569,-0.093765,-0.026877
69.899945,-0.078341,-0.259610,0.351390
70.004732,-0.258083,-0.098041,-0.072691
70.109516,0.478599,0.075745,-0.099568
70.214303,0.023670,-0.120184,0.091627
70.319087,-0.260221,-0.045203,-0.121406
70.423874,0.400105,0.016798,-0.074676
70.528658,-0.290458,-0.107509,0.051922
70.633444,-0.281906,0.135455,0.074065
70.738229,0.329399,-0.134539,0.546403
70.843015,-0.017256,0.032069,0.319626
70.947800,0.059252,0.317182,-0.440421
71.052586,-0.123697,0.184170,-0.387430
71.157371,-0.200511,-0.154697,-0.016035
71.262157,0.351237,-0.238383,0.133623
71.366942,0.130263,-0.064903,0.043828
71.471728,-0.177146,-0.111480,0.073149
71.576513,0.045203,-0.048104,-0.115450
71.681299,0.072538,0.027488,0.001985
71.786084,-0.226777,-0.116519,0.346503
71.890870,-0.027488,0.017562,0.216240
71.995655,0.211811,0.132096,0.050853
72.100441,-0.106287,0.109494,-0.075745
72.205225,-0.138968,0.149199,-0.196998
72.310012,0.255792,0.046577,-0.109494
72.414796,-0.071775,-0.224792,0.222807
72.519583,-0.150879,-0.089031,0.066430
72.624367,0.096667,0.129958,-0.296872
72.729153,0.004734,-0.067499,-0.093307
72.833938,-0.144465,-0.099568,0.181880
72.938724,0.201121,-0.075287,0.184781
73.043509,0.156377,0.095750,-0.018173
73.148295,0.038025,0.193639,0.014813
73.253080,-0.106440,0.075134,0.165692
73.357866,0.115756,0.210895,-0.166914
73.462650,-0.324971,0.056351,-0.176229
73.567437,0.004429,0.147214,-0.187072
73.672221,0.253043,-0.042912,-0.280837
73.777007,-0.156530,-0.067957,-0.023212
73.881792,-0.027641,-0.113618,-0.144007
73.986578,0.208604,-0.158668,0.030695
74.091363,0.086282,-0.040774,0.013897
74.196149,-0.335813,0.032528,-0.301759
74.300933,0.069789,0.096361,-0.394455
74.405719,0.297483,-0.265260,0.114839
74.510504,-0.247546,-0.152712,0.435534
74.615290,-0.208452,-0.118657,0.249531
74.720075,0.356735,-0.020005,0.119573
74.824861,-0.252738,-0.185392,0.522274
74.929645,-0.104913,-0.026725,0.390331
75.034431,0.380405,0.157140,-0.403006
75.139216,-0.084297,0.098346,-0.445308
75.244002,-0.282059,-0.074371,0.199136
75.348787,0.159584,-0.126445,0.438436
75.453573,0.155155,0.226319,0.123391
75.558357,-0.224945,0.282059,-0.198525
75.663143,0.109342,0.127209,-0.183407
75.767928,0.193486,0.175619,-0.193333
75.872714,-0.140800,-0.013286,0.014049
75.977498,0.009621,0.055282,-0.042912
76.082284,-0.420110,-0.078494,-0.205397
76.187069,0.077883,-0.094223,-0.156071
76.291855,0.463175,-0.020769,-0.072080
76.396639,0.167678,-0.230748,0.069484
76.501425,-0.326803,-0.206008,0.174550
76.606210,-0.025045,0.021838,0.028099
76.710996,-0.184629,-0.062765,0.100790
76.815780,0.097583,-0.006872,0.197151
76.920566,0.078341,0.002443,0.284808
77.025351,0.402396,0.114381,0.172564
77.130137,-0.258847,0.113007,0.069484
77.234921,-0.039858,0.169816,-0.156988
77.339707,-0.147978,0.143396,-0.405603
77.444492,0.033444,0.056351,-0.185545
77.549278,0.308172,-0.125224,-0.013286
77.654062,0.059558,-0.021380,-0.015118
77.758848,-0.172870,-0.067040,-0.146756
77.863633,-0.072538,-0.046424,-0.093001
77.968419,-0.061237,0.036651,0.007483
78.073203,-0.105829,-0.098499,0.290458
78.177989,0.069942,-0.087504,0.288320
78.282774,0.079410,0.097277,-0.018631
78.387560,0.007025,0.092849,-0.003512
78.492344,0.015424,0.026725,-0.029779
78.597130,0.080326,-0.063223,-0.094529
78.701914,-0.100026,0.038483,-0.231664
78.806700,-0.263733,0.017715,-0.238689
78.911485,0.336577,-0.205092,0.226319
79.016271,-0.039552,-0.021227,0.247699
79.121055,0.110411,0.136219,-0.173175
79.225841,0.012522,0.099415,-0.188905
79.330625,-0.279768,-0.096667,0.233649
79.435411,0.065208,0.013439,0.104302
79.540196,0.326651,0.118810,-0.194708
79.644982,-0.371853,-0.016340,-0.087198
79.749766,0.017562,-0.184629,0.169510
79.854552,0.283128,-0.158515,0.121559
79.959336,-0.178673,0.012522,0.002138
80.064122,-0.004734,0.084144,-0.051158
80.168906,0.060932,-0.016035,-0.094376
80.273692,-0.046730,0.026877,0.008552
80.378477,-0.051158,-0.045050,0.220821
80.483263,0.286640,0.118963,0.021838
80.588047,-0.147825,0.054671,0.089795
80.692833,-0.064139,0.006108,-0.024587
80.797617,-0.040927,0.049937,-0.013897
80.902403,-0.005803,0.021685,-0.099568
81.007187,-0.079716,-0.022143,-0.145229
81.111973,0.208146,-0.129194,0.165081
81.216758,0.190126,0.086129,-0.171343
81.321543,-0.470811,0.023670,-0.155461
81.426328,0.042759,0.018325,0.080174
81.531114,0.187683,0.002596,-0.043981
81.635898,0.061696,0.148741,-0.211200
81.740684,-0.194249,-0.056656,0.154239
81.845468,0.198983,-0.051922,0.272285
81.950254,-0.061237,0.144924,-0.138968
82.055038,-0.080479,0.200358,-0.523802
82.159824,-0.040163,-0.073607,-0.313212
82.264609,0.291069,-0.328025,0.021074
82.369395,-0.148894,-0.226930,0.162333
82.474179,-0.079563,-0.174397,0.064444
82.578965,-0.031764,-0.155766,0.144313
82.683749,0.396745,-0.178520,0.408199
82.788535,-0.503033,-0.047188,0.410642
82.893320,0.124613,0.098805,0.276103
82.998106,0.408504,0.298552,0.071164
83.102890,-0.223876,0.160347,-0.083533
83.207676,0.106287,0.182643,-0.114534
83.312460,-0.001985,0.092238,0.071164
83.417246,-0.140953,0.144313,-0.126598
83.522031,0.149658,0.154392,-0.557856
83.626817,0.098346,0.074218,-0.419957
83.731601,-0.046730,-0.099110,-0.425302
83.836387,-0.063834,-0.199442,-0.045966
83.941171,-0.052227,-0.290000,0.563965
84.045957,-0.285571,-0.063986,0.142938
84.150741,0.103080,0.047952,-0.091474
84.255527,0.191806,-0.025961,0.007177
84.360312,0.124155,-0.000305,0.257778
84.465098,-0.024587,-0.064750,0.049631
84.569882,-0.061390,0.020463,-0.197609
84.674668,-0.042607,-0.102775,0.153628
84.779452,0.029168,-0.238383,0.531284
84.884238,0.069637,-0.089184,0.258999
84.989023,-0.036956,0.198525,-0.181116
85.093809,-0.033597,0.187836,-0.358262
85.198593,0.239910,-0.029626,0.174702
85.303379,-0.193333,-0.045355,0.094834
85.408163,-0.038942,0.145382,0.134845
85.512949,0.408199,0.344671,-0.096208
85.617734,-0.438894,0.149505,-0.302369
85.722520,-0.088878,0.127209,-0.497841
85.827304,0.180964,0.047493,-0.271369
85.932090,-0.090100,-0.209062,0.065513
86.036874,-0.035276,-0.402396,0.235787
86.141660,0.276256,0.018325,-0.056962
86.246445,-0.145534,-0.109036,-0.060474
86.351231,0.001527,0.000000,0.056962
86.456015,0.008705,-0.007025,-0.205856
86.560801,-0.084755,0.144465,-0.138051
86.665585,0.333981,-0.103080,0.385139
86.770371,0.015424,-0.113159,0.438283
86.875156,-0.098805,0.049631,0.145076
86.979942,-0.078952,0.140800,-0.214255
87.084726,0.069178,0.013591,-0.242201
87.189512,-0.029321,-0.070858,0.126140
87.294296,0.030237,-0.223265,0.116214
87.399082,0.135914,-0.060932,-0.106593
87.503867,0.070553,-0.100332,0.018936
87.608653,-0.391553,-0.067957,0.105677
87.713437,0.229831,-0.024281,0.213186
87.818223,-0.266940,0.051006,0.199900
87.923008,0.080937,0.135150,0.020769
88.027794,0.246477,0.167983,0.129500
88.132578,-0.301606,0.026266,0.187072
88.237364,0.154392,0.099874,-0.049173
88.342148,0.052380,0.062612,0.034513
88.446934,-0.183560,0.156224,-0.450042
88.551719,-0.012370,-0.116825,-0.078341
88.656505,0.243728,-0.100484,0.125835
88.761289,-0.020922,0.011912,-0.024128
88.866075,-0.137899,0.201580,-0.324054
88.970860,0.025503,0.117588,-0.406213
89.075646,0.156377,-0.063986,-0.315655
89.180430,-0.105524,-0.115145,0.222348
89.285216,-0.049784,-0.195166,0.433854
89.390001,0.016798,-0.007483,0.040774
89.494787,0.119421,-0.017256,0.040163
89.599571,-0.166609,-0.114839,0.415529
89.704357,0.057572,-0.137441,0.297788
89.809142,0.068415,0.074523,-0.225861
89.913928,0.237314,0.178520,-0.492954
90.018712,-0.361316,-0.111785,-0.158973
90.123498,0.129652,-0.018784,0.085977
90.228283,0.169052,-0.047799,0.160500
90.333069,-0.376282,0.002596,0.167525
90.437853,0.156224,0.112090,0.013133
90.542639,0.065666,0.058947,0.048562
90.647424,-0.023976,0.014813,0.089184
90.752210,-0.036651,0.034055,0.138662
90.856994,0.096056,-0.012828,0.324360
90.961780,-0.065055,0.093001,-0.240216
91.066565,-0.020922,0.076661,-0.194249
91.171351,0.014049,0.106593,-0.239910
91.276135,-0.057114,0.009163,-0.307256
91.380921,-0.107509,0.027030,-0.293970
91.485706,0.382696,-0.087351,0.093154
91.590492,-0.152865,-0.072844,0.108731
91.695277,-0.013591,0.049173,-0.255792
91.800063,-0.103386,0.145687,-0.352764
91.904847,0.188294,-0.100484,0.214102
92.009633,0.077730,-0.328330,0.466229
92.114418,-0.348030,0.002902,0.155461
92.219204,-0.147520,-0.081243,-0.059558
92.323989,0.427440,-0.052686,-0.108731
92.428775,-0.229984,-0.090864,0.138051
92.533559,-0.083228,-0.004123,0.006261
92.638345,0.205703,-0.058794,-0.087046
92.743130,0.080479,-0.047035,0.085671
92.847916,-0.040927,-0.114534,0.383459
92.952701,-0.111480,0.015729,0.222807
93.057487,-0.031153,0.117588,0.198831
93.162271,0.342227,0.248462,0.246935
93.267057,-0.357346,0.164776,-0.187072
93.371842,0.046424,0.299162,-0.391400
93.476628,0.021380,0.087962,-0.466993
93.581413,0.307562,0.059863,-0.449125
93.686199,-0.047799,-0.272591,0.136372
93.790983,-0.110411,-0.310921,0.226930
93.895769,-0.122780,-0.118810,0.245713
94.000554,0.167830,-0.121864,0.269994
94.105340,-0.072385,0.201274,-0.170732
94.210124,-0.082617,0.192111,-0.151643
94.314911,-0.014813,0.075898,0.030237
94.419695,0.023670,0.144771,0.068415
94.524481,0.120642,0.113465,-0.042454
94.629266,-0.175313,0.115603,-0.323749
94.734052,0.139120,0.071927,-0.256403
94.838836,0.254418,-0.178978,-0.084450
94.943622,-0.158668,-0.248462,0.205856
95.048407,0.032833,-0.218225,0.234565
95.153193,-0.011301,0.086588,-0.183865
95.257978,-0.072844,0.149199,-0.352612
95.362764,-0.031611,0.074523,-0.304965
95.467548,-0.002902,0.054213,-0.323749
95.572334,-0.115145,-0.100026,0.171953
95.677119,0.098957,-0.171648,0.392164
95.781905,0.071927,0.029626,0.125835
95.886690,-0.047035,0.074676,-0.092543
95.991476,0.021838,-0.013439,-0.105829
96.096260,-0.000764,-0.055129,-0.161416
96.201046,-0.020463,-0.196082,-0.034513
96.305831,-0.003360,-0.130874,0.098957
96.410617,0.166456,-0.183712,0.217003
96.515402,-0.046577,-0.049937,0.358720
96.620188,0.137288,0.113159,-0.131332
96.724972,-0.487609,0.083228,-0.240368
96.829758,-0.229220,0.249531,-0.120642
96.934543,0.659715,-0.102775,0.164471
97.039329,-0.093612,-0.125835,0.301911
97.144114,-0.120490,0.065361,-0.073913
97.248900,0.012064,0.013744,-0.127514
97.353684,0.143549,-0.222959,0.419041
97.458470,0.017409,-0.235940,0.442406
97.563255,-0.013133,0.073454,0.123697
97.668041,-0.130569,0.074982,-0.250142
97.772825,-0.070247,0.103691,-0.061696
97.877612,0.217309,0.000916,0.144924
97.982396,-0.237314,0.026725,0.298704
98.087182,-0.078341,0.192570,0.011759
98.191967,0.258999,0.252585,-0.278546
98.296753,0.139579,0.193028,-0.172412
98.401537,-0.101095,0.161722,-0.332606
98.506323,-0.156071,0.085519,-0.379183
98.611108,0.254112,-0.151032,-0.151185
98.715894,-0.042148,-0.273965,0.224028
98.820678,0.014966,-0.267857,0.382849
98.925464,-0.042301,-0.041538,0.013133
99.030249,-0.062001,-0.065666,0.090253
99.135035,0.180505,0.009926,0.188599
99.239819,0.037414,0.120031,-0.179131
99.344605,-0.212117,0.170426,-0.472796
99.449389,0.012675,0.022296,-0.091627
99.554175,-0.116214,-0.155461,0.506545
99.658960,0.235023,-0.098346,0.342685
99.763746,-0.026725,0.249531,-0.285877
99.868530,-0.176688,-0.047646,0.005192
99.973316,-0.030237,-0.042148,0.202038
100.078100,0.133928,-0.026419,0.080174
100.182886,-0.123238,0.009621,0.189210
100.287670,0.385292,0.195318,-0.311838
100.392456,-0.189821,0.180353,-0.564423
100.497241,0.136524,-0.002749,-0.309852
100.602027,-0.350474,-0.086435,-0.120490
100.706811,0.108273,0.084755,-0.236398
100.811597,0.122169,-0.007941,-0.219600
100.916381,-0.196998,0.024281,-0.224028
101.021167,0.111021,-0.241437,0.319626
101.125951,-0.141411,-0.218072,0.374602
101.230737,0.156682,-0.272438,0.501658
101.335521,0.013286,-0.148130,0.434160
101.440307,0.063834,-0.036956,0.261595
101.545091,0.031917,0.144313,-0.164929
101.649877,-0.152406,0.263122,-0.493717
101.754661,0.141869,-0.000764,-0.277172
101.859447,-0.042912,-0.090100,0.000764
101.964231,-0.096361,-0.064139,0.314434
102.069017,-0.144771,-0.049784,0.262512
102.173801,0.356582,0.076814,0.019242
102.278587,0.128278,0.328636,-0.249378
102.383371,-0.743859,0.076661,-0.116061
102.488157,0.676666,0.035276,-0.130263
102.592941,-0.141411,-0.148283,0.312754
102.697727,-0.015424,-0.140037,0.241285
102.802511,0.081243,-0.000305,0.004276
102.907296,-0.207230,0.103233,-0.309089
103.012081,0.079257,0.064292,-0.345281
103.116866,0.175466,0.055587,-0.061543
103.221650,0.001069,-0.154086,-0.023365
103.326436,-0.131027,-0.008552,-0.112854
103.431220,-0.199289,-0.070400,0.130110
103.536006,0.182185,-0.075745,0.485929
103.640790,0.000916,0.000305,0.203259
103.745576,-0.204787,0.387888,-0.401021
103.850360,0.149963,0.154086,-0.541211
103.955146,0.102775,-0.013744,-0.121711
104.059930,0.106898,-0.234718,0.074218
104.164715,-0.077425,-0.060779,0.089336
104.269500,0.184781,-0.078188,-0.083839
104.374285,-0.177451,-0.083228,-0.120642
104.479069,0.127820,0.018631,-0.083839
104.583855,-0.268009,-0.054671,0.055282
104.688639,0.232886,-0.027335,0.125224
104.793425,0.039247,0.006567,0.342074
104.898209,-0.219752,0.138510,0.115297
105.002994,0.012828,0.157140,-0.284197
105.107779,-0.025808,0.089947,-0.311379
105.212564,0.336424,-0.046119,-0.007483
105.317348,-0.135608,0.007788,-0.015424
105.422134,-0.070553,-0.057725,-0.193333
105.526918,0.008552,0.006261,-0.241132
105.631704,-0.018478,0.034055,-0.319320
105.736488,0.072385,-0.211964,-0.080479
105.841273,0.113618,-0.234413,0.192570
105.946057,-0.003971,-0.198678,0.243423
106.050843,-0.095292,-0.100790,0.253043
106.155627,-0.065972,-0.060474,0.331995
106.260413,-0.029015,0.012217,0.465466
106.365197,0.215324,0.063223,0.050548
106.469982,-0.391095,0.060321,0.081701
106.574767,0.196540,0.064597,0.042607
106.679552,0.056656,0.121406,-0.152406
106.784336,0.020463,-0.207993,0.221127
106.889122,0.039094,0.024587,0.155613
106.993906,0.099721,-0.035582,0.019853
107.098692,-0.077119,0.073760,0.006567
107.203476,-0.160195,0.181269,-0.400716
107.308262,0.037567,0.029015,-0.094987
107.413046,0.094376,-0.000458,0.061390
107.517831,-0.362080,-0.033902,-0.035887
107.622615,0.462411,0.041690,0.393996
107.727401,0.050242,-0.183407,0.522580
107.832185,0.296261,0.137746,0.062765
107.936971,-0.304202,0.061848,-0.120184
108.041755,-0.137899,0.031611,-0.311685
108.146541,-0.167830,-0.207383,0.131638
108.251325,-0.119115,-0.301759,0.553733
108.356110,0.329858,-0.084602,0.251822
108.460894,0.273507,0.084908,-0.052991
108.565680,-0.059558,0.116825,-0.110869
108.670464,-0.160042,0.080479,0.180047
108.775250,0.038331,0.096972,0.377045
108.880034,0.111632,0.372159,-0.215629
108.984819,-0.132707,0.495550,-0.467909
109.089603,0.373839,0.295192,-0.366814
109.194389,0.065513,0.207535,-0.585802
109.299173,-0.254876,-0.062154,-0.361011
109.403959,-0.077883,-0.063681,-0.055587
109.508743,-0.062765,-0.180353,-0.228457
109.613528,0.118657,-0.182338,-0.230748
109.718312,0.214102,-0.276408,-0.127667
109.823098,-0.062154,-0.357804,0.312754
109.927882,-0.578320,-0.242812,0.371242
110.032667,0.583054,0.034055,0.048410
110.137451,0.016187,0.077272,0.066582
110.242237,-0.092543,0.094529,-0.015424
110.347021,-0.009926,0.268620,-0.236245
110.451806,-0.042607,0.135608,-0.296108
110.556590,0.037720,-0.068109,0.162638
110.661376,-0.057878,-0.067346,0.263275
110.766160,-0.082159,0.093612,-0.088115
110.870945,0.017256,0.185545,-0.546861
110.975729,0.020616,-0.035887,-0.313517
111.080515,0.082464,-0.162027,-0.025350
111.185299,-0.027488,-0.234107,0.169205
111.290084,0.053755,-0.063834,0.209062
111.394868,0.034513,0.136830,-0.213644
111.499654,-0.011301,0.227541,-0.591453
111.604438,-0.070400,0.080021,-0.486845
111.709223,0.186156,-0.220058,0.225250
111.814007,-0.081090,-0.310463,0.677582
111.918793,-0.136066,-0.131638,0.431258
112.023577,0.047493,0.051464,0.075287
112.128362,0.074371,0.025656,0.353986
112.233146,0.044286,0.127209,0.046272
112.337932,-0.072538,0.167525,-0.402854
112.442716,0.001527,0.267857,-0.607029
112.547501,0.248615,-0.007636,-0.398120
112.652285,0.048562,-0.215935,0.141258
112.758219,-0.464702,0.048715,0.006261
112.864350,0.041843,0.109953,-0.512654
112.969134,0.161569,0.068873,-0.580152
113.073919,-0.051617,-0.202954,0.143091
113.178703,0.207993,-0.307562,0.687356
113.283489,-0.192722,-0.149352,0.194555
113.388273,0.127362,0.047341,-0.019394
113.493058,-0.071622,-0.077425,0.422859
113.597842,-0.147825,-0.052075,0.242812
113.702628,0.088115,0.005345,-0.035429
113.807411,0.041996,0.081243,-0.176840
113.912197,-0.009468,0.099263,-0.224945
114.016981,0.046883,0.005498,-0.172564
114.121766,-0.058947,-0.005345,0.052075
114.226550,0.011148,0.024434,0.077119
114.331336,0.069637,0.105677,-0.242812
114.436119,-0.011759,0.116825,-0.183254
114.540905,-0.036804,-0.164471,0.362996
114.645689,0.007636,-0.076356,0.461190
114.750474,-0.084602,-0.035582,0.237161
114.855258,0.031611,0.220516,-0.104608
114.960043,0.161264,0.228151,-0.486234
115.064827,-0.015729,0.047799,-0.396898
115.169613,-0.057725,-0.123086,-0.137746
115.274396,-0.041385,-0.183712,0.087198
115.379182,0.116977,-0.108120,0.083991
115.483966,-0.128278,-0.040010,0.074676
115.588751,-0.006719,-0.076814,0.179284
115.693535,-0.021380,-0.032986,0.163249
115.798320,0.061237,0.130874,-0.111327
115.903104,-0.003665,0.111021,0.148589
116.007889,0.057420,0.003665,0.221738
116.112673,-0.174397,0.124613,-0.205550
116.217459,0.038636,0.214713,-0.520289
116.322242,0.149199,0.068873,-0.493412
116.427028,0.182643,-0.115297,-0.152712
116.531812,0.020616,-0.373839,0.299621
116.636597,-0.151948,-0.114687,0.133317
116.741381,-0.089795,-0.064444,0.010384
116.846166,0.024128,-0.026572,0.156835
116.950950,0.005345,-0.085824,0.075440
117.055735,-0.115603,-0.003971,0.131485
117.160519,0.066582,-0.076203,0.235787
117.265304,0.005956,0.132859,-0.013133
117.370088,-0.156071,0.018784,0.223417
117.474874,0.301300,0.135761,0.105829
117.579657,0.075134,-0.034666,0.083381
117.684443,-0.274270,0.207688,-0.307714
117.789226,0.060474,0.040163,-0.113159
117.894012,0.097736,-0.158362,0.169205
117.998795,0.004581,-0.149505,0.083839
118.103581,0.066277,0.113312,-0.229679
118.208364,-0.139579,-0.067040,-0.027946
118.313150,0.393080,-0.067499,0.161264
118.417933,-0.135914,0.050242,-0.019853
118.522719,-0.074676,0.082312,-0.012828
118.627502,-0.034818,0.070706,-0.142786
118.732288,0.007636,0.044592,-0.067804
118.837071,-0.045661,-0.023365,0.102011
118.941857,-0.209979,-0.069942,0.266177
119.046640,0.296261,-0.066735,0.367425
119.151426,-0.123544,0.255945,-0.167830
119.256209,-0.065972,0.119115,-0.396745
119.360995,0.068415,-0.100179,-0.030695
119.465778,0.096819,-0.124155,-0.071469
119.570564,-0.264039,-0.160958,0.132707
119.675347,0.293054,-0.128278,0.310463
119.780132,0.149505,0.051158,0.057572
119.884916,-0.324054,0.113465,-0.132096
119.989701,0.250295,0.000611,0.069789
120.094485,0.101095,0.090405,-0.001527
120.199270,-0.151490,0.265260,-0.521969
120.304054,-0.010995,0.224028,-0.432785
120.408839,-0.110105,-0.023365,-0.131179
120.513623,0.062765,-0.113159,-0.063834
120.618408,0.172106,-0.156682,0.069026
120.723191,-0.238536,-0.228151,0.333064
120.827977,0.043523,-0.238536,0.389568
120.932760,-0.055893,-0.138204,0.246630
121.037545,-0.010384,-0.115603,0.459968
121.142329,0.045050,0.018478,0.072538
121.247114,0.019853,0.214560,-0.249531
121.351898,-0.102470,0.219905,-0.325887
121.456683,-0.008399,0.174702,-0.416140
121.561466,0.084450,0.064444,-0.306951
121.666252,0.016798,-0.014202,-0.027030
121.771035,-0.000611,-0.096056,0.096056
121.875820,0.178826,-0.040010,0.165998
121.980604,-0.143396,0.009621,0.051769
122.085389,-0.183712,-0.033902,-0.051464
122.190173,-0.059099,-0.041232,-0.010537
122.294958,0.089947,-0.048562,0.089336
122.399741,0.113923,-0.118504,0.166456
122.504526,-0.067193,-0.099874,0.022907
122.609310,-0.100484,-0.107051,0.196846
122.714095,0.204787,-0.194860,0.392469
122.818879,-0.017562,0.037414,0.019242
122.923664,0.143244,0.058947,-0.138510
123.028447,-0.083533,0.011606,-0.042301
123.133232,0.012217,-0.022754,0.119726
123.238016,-0.104455,-0.136983,0.519831
123.342801,0.028404,0.012217,0.383154
123.447584,-0.055893,0.276256,0.036345
123.552370,0.016340,0.268009,-0.101706
123.657153,0.081243,0.270605,-0.270147
123.761938,-0.134234,0.255640,-0.517846
123.866722,0.150727,0.100026,-0.355513
123.971507,-0.145992,-0.043065,-0.103539
124.076290,0.211200,0.016035,-0.316572
124.181075,0.026877,0.018020,-0.290305
124.285859,-0.065361,-0.127972,-0.297330
124.390644,-0.111938,-0.230748,-0.022754
124.495427,-0.010537,-0.343449,0.491274
124.600212,0.020311,-0.198831,0.423775
124.704996,0.120642,-0.004276,0.085824
124.809781,-0.020922,0.104149,-0.197762
124.914564,-0.034818,0.028099,-0.049937
125.019349,0.039705,-0.133165,0.322833
125.124133,-0.063834,0.004581,0.282059
125.228918,-0.038942,0.207535,-0.011912
125.333701,-0.010995,0.053602,-0.034513
125.438486,-0.003665,0.068873,-0.046577
125.543270,-0.200511,0.052686,-0.176993
125.648055,0.084450,0.127056,-0.429731
125.752838,0.091780,-0.011148,-0.162180
125.857623,-0.134845,-0.136983,0.083228
125.962407,-0.071775,-0.060932,0.158209
126.067192,0.022907,-0.146145,0.204481
126.171975,0.004734,-0.048715,0.180047
126.276760,-0.059099,-0.010843,0.143396
126.381543,-0.037873,-0.008399,0.171190
126.486328,0.052533,0.113159,0.045661
126.591112,-0.078952,0.108731,-0.226777
126.695897,0.090253,0.099568,-0.223570
126.800680,0.042454,-0.036040,-0.020005
126.905465,-0.155308,0.024434,-0.080021
127.010249,-0.002749,0.034207,0.044897
127.115034,0.041385,-0.037873,0.250295
127.219817,0.004581,-0.021227,0.109189
127.324602,0.114534,0.047646,-0.062306
127.429385,0.069331,0.056503,-0.052838
127.534170,0.097125,0.004581,0.089031
127.638954,-0.049631,-0.024281,0.091016
127.743739,-0.039247,-0.037414,0.136219
127.848522,-0.056503,-0.015729,-0.040469
127.953307,0.035582,0.015577,-0.072996
128.058090,0.020311,0.002749,-0.018325
128.162875,0.006261,-0.055740,0.105371
128.267659,0.018173,-0.040316,0.184629
128.372444,0.003512,0.145229,-0.199136
128.477227,0.011301,0.131790,-0.346503
128.582012,-0.038331,0.057572,-0.108273
128.686795,0.042607,-0.007788,0.074065
128.791580,0.025961,-0.024892,0.156682
128.896363,0.018936,0.046883,-0.017256
129.001148,-0.011453,0.015271,-0.033597
129.105932,0.006108,-0.003360,-0.068415
129.210717,-0.004734,-0.010690,-0.133928
129.315500,0.012064,-0.027946,-0.052227
129.420285,0.043370,0.009163,-0.120948
129.525068,0.027488,-0.045203,0.138204
129.629853,0.032680,-0.296566,0.548541
129.734636,-0.024434,-0.149658,0.584275
129.839421,0.009163,-0.091780,0.393538
129.944205,0.006261,0.038483,0.091016
130.048989,-0.012522,0.079716,-0.107204
130.153773,0.018631,-0.007636,0.347878
130.258558,-0.046730,0.054213,-0.082617
130.363341,0.064139,0.318557,-0.456303
130.468126,-0.102928,0.072385,-0.155766
130.572909,0.025350,0.147367,-0.392164
130.677694,-0.013591,0.330774,-1.138161
130.782477,0.014202,0.246782,-1.152363
130.887262,0.059405,-0.078647,-0.011301
130.992045,0.051311,-0.174855,0.125376
131.096830,-0.060779,0.197304,-0.466229
131.201614,-0.045661,0.238383,-0.588857
131.306399,-0.031000,0.098652,-0.390026
131.411182,0.049937,0.198220,-0.606571
131.515967,0.123544,0.301606,-1.072342
131.620750,0.034818,0.303897,-1.134343
131.725535,0.131943,-0.022143,-0.449431
131.830318,0.014355,-0.157904,-0.095750
131.935103,-0.109494,0.003818,-0.387583
132.039886,-0.057572,0.162791,-0.530979
132.144671,-0.065361,0.035735,-0.438741
132.249454,0.056962,-0.068109,-0.173481
132.354239,0.077272,0.114687,-0.571906
132.459022,0.674528,0.375060,-0.837930
132.563807,-0.292290,-0.122628,-0.468673
132.668590,0.303133,0.023670,-0.325582
132.773375,0.361316,0.136983,-0.559842
132.878159,0.007025,0.084144,-0.654217
132.982944,0.167830,0.214102,-0.614360
133.087727,0.106593,0.272896,-1.091890
133.192512,0.151185,0.105218,-0.967124
133.297295,0.040163,-0.012828,-0.666587
133.402080,0.227846,-0.121559,-0.791200
133.506863,-0.005192,-0.215171,-0.484096
133.611648,-0.116214,-0.277936,-0.128583
133.716431,-0.251211,-0.332454,-0.096972
133.821216,-0.210742,-0.138051,-0.328330
133.925999,0.994307,-0.203107,-0.214407
134.030784,0.514181,-0.240063,0.217920
134.135567,0.383154,-0.308020,0.588704
134.240352,-0.327567,-0.561979,0.721716
134.345135,0.167983,0.152254,0.380558
134.449920,-0.141258,0.023212,-0.161111
134.554703,-0.157751,0.235787,-0.514944
134.659488,0.090864,0.092085,-0.552359
134.764271,-0.113007,0.052227,-0.357498
134.869056,0.019089,-0.309852,0.226777
134.973839,0.079716,-0.255334,0.312754
135.078624,-0.022754,-0.116672,0.141411
135.183407,-0.085977,-0.151032,0.450194
135.288192,0.144160,-0.039400,0.388041
135.392975,-0.021380,0.076050,0.198983
135.497760,0.074829,0.095139,0.211964
135.602543,0.056809,-0.013439,0.156377
135.707328,-0.000305,0.297635,-0.264802
135.812111,0.218072,0.183865,-0.573127
135.916896,-0.380405,0.069789,-0.280990
136.021679,0.325429,-0.263581,0.419041
136.126464,-0.146603,-0.180353,0.640321
136.231247,-0.276867,0.227846,-0.348183
136.336032,0.130569,0.293665,-0.593896
136.440815,0.401937,-0.102622,0.437367
136.545599,-0.182032,0.009163,0.159431
136.650383,-0.039858,0.381474,-0.674070
136.755167,0.094529,0.010690,-0.321764
136.859951,-0.090864,-0.257930,0.206466
136.964735,-0.292138,0.038636,-0.097888
137.069518,0.627951,-0.160958,0.064444
137.174303,-0.214713,0.004429,-0.165081
137.279086,-0.186461,-0.180658,0.076356
137.383871,0.138204,-0.153934,0.335508
137.488654,0.022143,0.084755,0.102164
137.593439,0.011301,-0.017867,-0.048562
137.698222,-0.076050,0.218531,-0.097125
137.803007,0.006108,0.043981,-0.066277
137.907790,0.105371,0.147061,-0.324360
138.012575,0.021380,0.010995,-0.362538
138.117358,-0.020616,-0.174550,0.126904
138.222143,-0.114534,-0.281906,0.286945
138.326926,0.225250,-0.164012,0.087809
138.431711,-0.302064,-0.097125,0.219752
138.536494,0.192417,-0.147520,0.456608
138.641279,0.125071,0.035124,0.099721
138.746062,-0.182185,0.153781,-0.100790
138.850846,0.218378,0.122322,0.071164
138.955629,0.033138,0.129805,-0.036498
139.060414,-0.249989,0.148894,-0.043370
139.165197,0.163707,0.041996,-0.057572
139.269982,0.083381,0.090558,-0.222196
139.374765,-0.095139,-0.091933,-0.013744
139.479550,-0.101706,0.083991,-0.175160
139.584333,-0.041690,0.009468,-0.301759
139.689118,-0.030542,-0.244644,0.151490
139.793901,0.195624,-0.143855,0.258083
139.898686,-0.073149,0.038025,0.204939
140.003469,0.208757,-0.071469,0.131790
140.108254,-0.077425,0.238078,-0.075134
140.213037,0.089947,0.156071,-0.208757
140.317821,-0.029321,0.005650,-0.152254
140.422604,-0.019089,-0.075287,-0.059558
140.527389,0.033138,-0.094834,0.032375
140.632172,-0.080174,-0.177146,0.233038
140.736957,0.085366,-0.043676,0.127667
140.841740,-0.017715,-0.066430,0.040927
140.946525,-0.052686,0.143091,-0.177604
141.051308,-0.169052,-0.055129,0.211048
141.156093,0.060474,-0.082464,0.384834
141.260876,-0.000305,0.176077,-0.017104
141.365661,0.117283,0.174702,-0.305576
141.470444,-0.168899,0.016493,-0.192570
141.575228,0.228457,0.001222,-0.115756
141.680011,-0.059558,-0.116366,0.131485
141.784796,0.127514,-0.164929,0.129805
141.889579,-0.068568,-0.113007,0.147367
141.994364,-0.092085,-0.016951,0.203259
142.099147,-0.070400,0.015271,0.275187
142.203932,0.090405,0.162944,0.025197
142.308715,-0.032375,0.200816,-0.187530
142.413500,0.079257,0.189515,-0.273812
142.518283,0.047493,0.090711,-0.190279
142.623067,-0.186461,-0.119726,-0.030084
142.727850,0.366356,-0.023212,-0.249684
142.832635,0.086588,-0.124307,-0.091780
142.937418,-0.298857,-0.235176,0.311379
143.042203,0.141411,-0.240521,0.350015
143.146986,-0.117283,0.021532,0.223876
143.251771,0.023823,0.201274,-0.135303
143.356554,0.070095,0.144924,-0.200663
143.461338,-0.168594,0.049937,-0.020463
143.566121,0.350779,0.019547,0.016646
143.670906,-0.121559,0.019547,-0.100637
143.775689,-0.089642,0.022449,0.053602
143.880474,-0.089795,-0.125987,0.136372
143.985257,-0.081854,-0.011148,-0.016951
144.090042,0.179742,0.023518,-0.136677
144.194825,0.027641,-0.023212,-0.097125
144.299609,-0.118657,-0.025197,0.076814
144.404392,0.098194,-0.023365,-0.055282
144.509177,0.120795,-0.012217,-0.187683
144.613960,-0.118046,-0.189515,0.175160
144.718745,0.079563,-0.240521,0.548083
144.823528,-0.073454,-0.045966,0.428815
144.928313,-0.323138,0.056962,0.141717
145.033096,0.142327,0.111480,0.143091
145.137880,0.243575,0.106898,0.134386
145.242663,-0.034971,0.288473,-0.314281
145.347448,0.225555,0.247393,-0.564270
145.452231,-0.194860,0.029779,-0.230595
145.557016,-0.075592,-0.107815,0.066735
145.661799,0.097277,-0.069331,-0.074982
145.766583,0.188905,-0.147825,0.056809
145.871366,-0.112090,-0.088726,0.129194
145.976151,-0.087046,-0.087351,0.048715
146.080934,0.091780,0.039400,0.103997
146.185719,-0.240521,-0.094223,0.063223
146.290502,0.733322,-0.159889,0.184018
146.395286,0.088573,-0.138357,0.224792
146.500069,0.261137,-0.131332,0.214102
146.604854,-0.607793,0.025503,0.257625
146.709637,-0.078188,-0.016951,-0.045966
146.814422,0.081701,-0.183865,0.048562
146.919205,-0.159584,-0.184781,0.283280
147.023989,-0.135150,-0.034666,0.235023
147.128772,0.100484,-0.138510,0.604433
147.233557,0.158515,-0.203259,0.712248
147.338340,0.069026,-0.087351,0.742790
147.443125,-0.056045,-0.123697,0.582290
147.547908,0.152865,0.137288,0.181422
147.652692,0.004123,-0.019853,0.351237
147.757475,0.153934,-0.213033,0.560300
147.862260,0.105524,-0.016646,0.464397
147.967043,0.102622,0.172412,0.320542
148.071828,0.085671,0.037720,0.193944
148.176611,0.225555,0.116214,0.152254
148.281395,-0.065208,-0.041232,0.409726
148.386178,0.160500,0.034513,0.635281
148.490963,-0.056503,0.047035,0.494023
148.595746,-0.149047,0.161111,0.226624
148.700531,0.344823,0.079563,0.195929
148.805314,0.009621,0.086893,0.232427
148.910098,-0.036040,0.063070,0.115145
149.014881,0.021227,0.083686,-0.051769
149.119666,0.193180,-0.100484,0.146603
149.224449,0.188141,-0.246324,0.414918
149.329233,-0.279615,0.054671,-0.025503
149.434016,-0.004581,-0.231206,0.417667
149.538801,-0.036804,-0.381474,1.142132
149.643584,0.271216,-0.027335,0.861295
149.748368,-0.064139,0.517235,0.118963
149.853151,0.421943,0.065819,0.098346
149.957936,-0.158668,0.234107,0.345587
150.062719,0.100790,0.140342,0.043523
150.167504,0.344976,0.239758,0.102622
150.272287,-0.672696,0.255640,-0.096361
150.377071,-0.357346,0.276103,-0.267398
150.481854,-0.246782,-0.075592,0.187225
150.586639,0.758978,0.066277,0.223570
150.691422,0.497841,0.019853,-0.067346
150.796207,-0.207993,-0.024739,-0.085824
150.900990,-0.017562,0.156835,0.060016
151.005774,0.132859,-0.032375,0.074829
151.110558,-0.188446,0.094987,-0.069637
151.215342,-0.047035,0.180658,-0.326956
151.320125,-0.009163,0.065819,-0.068873
151.424910,0.139273,0.083686,0.113007
151.529693,-0.127056,-0.071622,0.376282
151.634478,-0.249989,0.144771,-0.156530
151.739261,0.185087,0.091933,-0.330010
151.844046,0.151643,-0.016798,-0.337035
151.948829,-0.039858,-0.030695,-0.206161
152.053614,0.134234,-0.069331,-0.167067
152.158397,-0.431411,-0.128278,-0.063681
152.263182,0.148589,-0.230137,-0.036193
152.367965,0.175008,-0.252433,0.151337
152.472750,-0.080326,-0.240216,0.513570
152.577533,0.203412,-0.184323,0.646429
152.682318,-0.172259,0.104760,0.339784
152.787101,0.070858,0.258541,-0.010843
152.891886,-0.003818,0.277630,-0.313517
152.996669,-0.022907,0.110258,-0.190584
153.101454,0.060779,0.122322,-0.248615
153.206237,-0.067040,-0.011606,-0.021991
153.311022,0.152865,-0.107356,-0.123697
153.415805,-0.139273,-0.066430,-0.060321
153.520590,0.102011,-0.191042,0.036193
153.625373,0.105371,-0.093460,-0.004123
153.730158,-0.158362,-0.143396,0.388193
153.834941,-0.173328,-0.178215,0.663075
153.939726,0.069026,0.070858,0.183407
154.044509,-0.062917,0.233344,-0.131179
154.149294,0.082006,0.130416,-0.294734
154.254077,0.295345,0.143855,-0.130874
154.358862,-0.162027,-0.011301,0.063528
154.463645,-0.318710,0.060321,0.002291
154.568430,0.120031,-0.007636,0.031153
154.673213,0.986213,0.093001,-0.359789
154.777998,-0.253349,0.206619,-0.232580
154.882781,0.168441,-0.202038,0.139273
154.987566,-0.233191,-0.110411,0.077730
155.092349,-0.186003,-0.107509,0.165387
155.197134,-0.024587,-0.147214,0.099110
155.301917,-0.326498,0.061390,0.056351
155.406702,-0.386666,0.015577,0.133470
155.511485,-0.122322,0.043370,-0.007941
155.616270,0.052838,0.083228,-0.209673
155.721053,0.228762,0.163554,-0.124002
155.825838,0.593591,0.010843,0.130416
155.930621,0.036345,0.040621,-0.016951
156.035406,-0.210742,0.000305,-0.088115
156.140190,-0.165387,-0.072080,-0.005192
156.244974,0.113923,-0.096361,-0.034971
156.349758,0.115603,-0.117130,-0.054976
156.454542,-0.113770,-0.086282,0.119726
156.559326,-0.059405,-0.236551,0.330774
156.664111,0.232122,0.070706,0.098346
156.768894,-0.012522,0.188141,-0.378267
156.873679,-0.218683,-0.013133,0.163096
156.978462,0.136677,-0.192722,0.600921
157.083247,-0.049479,0.068873,0.340089
157.188030,0.111632,0.292749,-0.155919
157.292815,-0.103691,0.257625,-0.504713
157.397598,0.123849,0.080326,-0.247088
157.502383,-0.150727,-0.010384,-0.008552
157.607166,0.109953,-0.102011,-0.073149
157.711951,0.057114,0.058947,-0.301606
157.816734,-0.227999,-0.139884,-0.101401
157.921519,0.147672,-0.061848,-0.067957
158.026302,0.054213,-0.062306,0.173022
158.131087,0.007788,-0.158820,0.319626
158.235871,-0.008705,-0.137593,0.464091
158.340656,-0.071164,0.178062,0.032375
158.445439,0.091933,0.126293,-0.210131
158.550224,-0.144924,0.002596,-0.092085
158.655007,0.151185,-0.138815,0.114839
158.759792,-0.198067,-0.004276,0.052075
158.864575,-0.003054,0.045355,-0.169663
158.969360,-0.080479,-0.010995,-0.178215
159.074143,0.162944,-0.109342,0.003665
159.178928,-0.176382,-0.115756,0.205703
159.283711,0.106898,-0.147214,0.446682
159.388496,0.010995,0.012828,0.331079
159.493280,0.146756,0.055587,0.111021
159.598065,-0.128889,0.309394,-0.182491
159.702848,0.230289,0.096514,-0.039247
159.807633,-0.165234,0.042301,0.049937
159.912416,-0.033749,0.187530,-0.253502
160.017201,0.111174,0.119268,-0.361622
160.121984,0.281753,-0.009163,-0.271063
160.226769,-0.059099,-0.001374,-0.131943
160.331552,-0.021380,-0.202038,0.186003
160.436337,-0.000611,-0.151185,0.148436
160.541120,-0.111327,-0.024434,0.122628
160.645905,-0.103844,0.071469,0.012064
160.750689,-0.019547,0.002749,0.075440
160.855474,0.035735,0.015729,-0.090864
160.960257,0.031764,0.147978,-0.136677
161.065042,-0.071622,0.015271,-0.051311
161.169825,0.015271,0.023518,-0.178367
161.274610,0.055740,-0.100790,0.008857
161.379393,-0.067346,-0.022449,-0.108425
161.484178,0.192722,0.015882,-0.140648
161.588961,-0.112701,-0.084450,0.001374
161.693746,-0.095445,-0.007025,-0.032833
161.798530,0.112701,-0.054060,0.136677
161.903315,0.130721,-0.008094,0.186614
162.008098,-0.020158,0.076203,-0.163860
162.112883,-0.160042,0.093154,-0.044286
162.217666,-0.223723,-0.089947,0.218989
162.322451,0.037873,0.014660,0.093307
162.427234,0.248157,0.056198,-0.240063
162.532019,-0.034513,0.020158,-0.264802
162.636803,-0.080479,0.023976,-0.105829
162.741588,0.033138,-0.122780,0.095598
162.846371,-0.028404,0.108884,-0.108120
162.951156,0.162027,0.060627,-0.222348
163.055939,-0.090711,0.000611,-0.267551
163.160724,-0.002596,-0.098041,0.153475
163.265507,0.001069,-0.104760,0.400258
163.370292,0.183865,-0.184934,0.249989
163.475076,-0.230595,0.096972,-0.159431
163.579861,-0.049479,0.042454,-0.080785
163.684644,0.132248,-0.138357,0.096514
163.789429,-0.008246,-0.121559,0.097430
163.894212,0.178367,0.007177,-0.072844
163.998997,-0.124918,-0.081701,-0.000458
164.103780,-0.028557,-0.004276,0.131790
164.208565,0.102622,0.026419,0.129347
164.313349,-0.021380,-0.142786,0.419499
164.418134,-0.186461,0.050853,0.446682
164.522917,0.274423,0.189057,0.113618
164.627702,0.012675,0.341616,-0.258847
164.732485,-0.150268,0.240368,-0.305576
164.837270,0.020005,0.045203,-0.316419
164.942054,0.101706,-0.096361,-0.162333
165.046839,-0.030542,0.009926,-0.254571
165.151622,0.029015,-0.066888,-0.090100
165.256407,0.275950,-0.136066,0.080174
165.361190,-0.405450,-0.041385,-0.040927
165.465975,-0.119573,-0.069331,0.088267
165.570759,0.163096,-0.000305,0.242964
165.675544,-0.034666,0.037720,0.116977
165.780327,0.002443,0.075287,-0.137288
165.885112,0.088115,0.118046,-0.203107
165.989895,-0.236398,-0.086740,0.022296
166.094680,0.322680,-0.075745,0.185392
166.199464,-0.098499,0.082464,-0.146756
166.304249,0.693617,0.023823,-0.135303
166.409032,-0.102622,-0.050089,-0.168594
166.513817,0.232886,0.105829,-0.135455
166.618600,-0.416140,-0.168441,0.030695
166.723385,-0.243728,-0.046883,0.054213
166.828168,-0.291069,-0.042759,0.127209
166.932953,-0.346198,-0.057572,0.166914
167.037737,-0.066430,0.022143,0.128278
167.142522,-0.122780,0.090864,-0.189668
167.247305,0.037873,0.048257,-0.245408
167.352090,0.020769,-0.078341,-0.186614
167.456873,0.802501,-0.260526,0.408046
167.561658,0.191042,-0.345587,0.614512
167.666442,-0.240979,-0.049479,0.323749
167.771227,-0.161875,0.201121,0.090558
167.876010,-0.001222,0.160347,-0.048562
167.980795,0.020922,0.141258,-0.079868
168.085578,-0.012522,0.317641,-0.043828
168.190363,0.256861,0.193944,-0.340547
168.295147,-0.109189,0.198983,-0.642306
168.399932,0.014355,-0.090405,-0.155461
168.504715,-0.250295,-0.252585,0.342380
168.609500,0.083686,-0.265108,0.209521
168.714284,0.083533,0.015424,0.031459
168.819069,-0.076050,-0.025961,-0.199442
168.923852,0.390484,0.026266,-0.046883
169.028637,-0.140037,-0.127820,0.169663
169.133421,-0.106440,0.077425,-0.077730
169.238206,-0.224486,0.041843,-0.001985
169.342989,0.080326,-0.014966,0.133470
169.447774,0.054060,-0.007941,0.166914
169.552557,-0.220821,0.070400,0.129347
169.657343,0.063528,0.115145,0.008399
169.762126,0.086588,0.186614,-0.241896
169.866911,0.475239,0.162638,-0.386514
169.971694,0.937192,0.164929,-0.404381
170.076479,-0.139731,-0.000153,-0.160195
170.181263,-0.389415,-0.079716,-0.247393
170.286048,-0.567172,-0.014202,-0.116519
170.390831,-0.036498,-0.014202,0.048868
170.495616,-0.219294,0.337646,-0.104913
170.600400,0.096361,0.318557,-0.541211
170.705185,0.375518,0.449125,-0.733933
170.809968,0.102164,0.215476,-0.504254
170.914753,0.167372,-0.057267,-0.379489
171.019536,0.087504,0.044592,-0.538615
171.124322,-0.315197,0.029779,-0.573738
171.229105,-0.191959,0.212117,-0.844344
171.333890,0.544112,0.020311,-1.137398
171.438673,0.328178,-0.179131,-0.457677
171.543458,-0.013591,-0.490358,0.266635
171.648242,0.020311,-0.355208,0.374602
171.753027,0.399036,0.037414,-0.122322
171.857810,-0.353222,0.168288,-0.482264
171.962595,0.185698,0.176688,-0.415834
172.067378,0.082006,0.230595,-0.494939
172.172163,0.127667,0.104455,-0.580152
172.276947,-0.118657,0.176229,-0.544876
172.381732,0.198983,0.044897,-0.689036
172.486515,0.207535,0.037720,-0.581527
172.591300,-0.105066,0.079410,-0.916576
172.696083,-0.016187,-0.061390,-0.732100
172.800868,0.253043,-0.105524,-0.363301
172.905651,0.198067,-0.182949,-0.299162
173.010436,0.309852,-0.092085,-0.363607
173.115220,-0.066277,-0.124613,-0.426982
173.220005,-0.137288,-0.069026,-0.399341
173.324788,-0.187836,-0.203259,-0.235482
173.429573,-0.184170,-0.240368,0.065972
173.534356,-0.427135,-0.077578,-0.041996
173.639141,0.069026,-0.006872,-0.285266
173.743924,0.916118,0.007330,-0.247393
173.848709,0.382390,-0.093765,-0.069178
173.953493,0.025350,-0.349405,-0.037873
174.058278,-0.003818,0.041385,-0.292138
174.163061,0.090253,-0.234718,-0.314586
174.267846,-0.191195,-0.144313,0.040621
174.372629,-0.240674,-0.249531,0.365592
174.477414,0.273354,-0.062612,0.288014
174.582197,-0.016646,0.104608,-0.024281
174.686982,-0.108884,0.001527,0.004887
174.791766,-0.176077,0.020922,-0.061085
174.896551,0.205550,0.092391,-0.100026
175.001334,-0.145382,0.132707,-0.054824
175.106119,0.212728,-0.107051,-0.219141
175.210902,-0.034207,0.070553,-0.296719
175.315687,0.140648,-0.110411,-0.210131
175.420470,-0.025197,-0.245102,0.180964
175.525255,0.036498,-0.089184,0.343907
175.630039,0.209521,0.044897,-0.168136
175.734824,-0.100332,0.001069,-0.197915
175.839607,-0.086282,-0.030390,0.233649
175.944392,-0.108884,-0.147061,0.537087
176.049175,-0.045203,-0.027794,0.172412
176.153960,0.260984,0.157446,-0.254876
176.258743,-0.527161,0.111480,-0.226930
176.363528,0.333064,-0.151796,0.138051
176.468311,0.319779,0.039094,0.183865
176.573096,-0.232275,-0.020616,-0.125835
176.677880,-0.296566,0.160195,-0.258999
176.782665,0.269078,-0.119115,-0.154239
176.887448,0.110563,-0.096972,0.180505
176.992233,-0.157751,-0.084908,0.380405
177.097016,-0.307256,-0.012981,0.333981
177.201801,0.390790,0.052227,0.095292
177.306584,0.015118,0.315350,-0.100790
177.411369,-0.116366,-0.024587,-0.043828
177.516152,-0.144313,0.046424,-0.032528
177.620937,0.061696,0.147367,-0.322986
177.725720,-0.053296,0.091169,-0.377962
177.830505,0.220058,-0.030695,-0.241896
177.935289,-0.087657,-0.091627,0.036040
178.040073,0.210590,-0.124307,0.204939
178.144857,-0.047341,0.024892,-0.002291
178.249642,-0.272438,0.015577,-0.008094
178.354425,0.360858,-0.070095,0.187072
178.459210,-0.099110,0.189974,-0.227082
178.563993,-0.036956,0.081395,-0.303286
178.668778,0.096361,-0.132554,-0.118657
178.773561,-0.225861,-0.164929,0.253349
178.878346,-0.028710,-0.263886,0.284502
178.983129,0.026419,-0.136219,0.180505
179.087914,0.267857,-0.020616,0.004887
179.192697,-0.205550,0.098805,-0.020158
179.297482,0.001374,0.107051,0.025656
179.402265,0.393233,0.034055,0.028404
179.507050,-0.258847,0.028710,0.078036
179.611833,0.016951,0.049784,0.160042
179.716618,-0.140648,0.148894,-0.057420
179.821401,0.110716,0.077119,-0.010690
179.926186,0.234871,0.215629,-0.240216
180.030970,-0.311532,0.034513,-0.366508
180.135754,-0.211811,0.102928,-0.541822
180.240538,0.343907,-0.226013,-0.046883
180.345322,-0.017104,-0.201732,0.198525
180.450106,0.193180,-0.260068,0.182643
180.554891,-0.315503,0.035735,-0.035735
180.659674,-0.059099,-0.149199,-0.024739
180.764459,0.012981,-0.109800,0.338715
180.869242,0.075745,-0.213033,0.626118
180.974027,0.362538,-0.050548,0.382085
181.078810,-0.603212,0.179436,-0.071011
181.183595,-0.010079,0.316113,-0.224334
181.288378,0.604281,0.175008,-0.186461
181.393163,-0.121711,-0.091169,-0.024281
181.497946,-0.341922,0.036040,-0.037720
181.602731,0.186767,0.001374,-0.081243
181.707514,-0.120184,-0.050853,0.049631
181.812299,0.290611,0.028863,0.047188
181.917082,-0.093460,-0.007330,0.019394
182.021867,-0.170579,-0.048715,0.038636
182.126650,0.125529,0.047799,0.224486
182.231435,0.030084,0.047188,-0.018325
182.336218,-0.074982,0.165540,-0.167830
182.441003,0.051617,-0.043981,-0.202496
182.545786,-0.570379,0.008552,-0.036804
182.650571,0.552053,-0.367119,0.466382
182.755354,-0.055282,0.118046,0.212575
182.860139,-0.068262,0.163249,-0.117130
182.964922,0.450958,0.213033,-0.394607
183.069707,-0.393996,0.145687,-0.291069
183.174490,0.438283,0.015118,-0.238689
183.279275,-0.294276,0.128431,-0.245102
183.384058,-0.092085,0.012370,-0.221432
183.488843,-0.179131,-0.058183,-0.330927
183.593626,0.387124,-0.179589,0.215935
183.698411,0.125835,-0.232427,0.462411
183.803194,-0.090405,-0.012675,-0.024892
183.907979,-0.252585,0.009163,-0.194097
184.012762,-0.055587,-0.095903,-0.242201
184.117547,0.116519,-0.079563,-0.050089
184.222330,0.051311,-0.229679,0.420263
184.327114,0.011148,-0.087198,0.338715
184.431898,0.321458,0.121711,-0.141869
184.536682,-0.138815,0.005345,0.109494
184.641465,-0.278699,0.033138,0.210131
184.746250,0.212269,0.148130,-0.336424
184.851033,-0.247088,0.064139,-0.299926
184.955818,0.187225,-0.187530,0.262512
185.060601,-0.036345,-0.253654,0.442712
185.165386,0.043828,-0.112854,0.239147
185.270169,0.169663,0.102164,-0.209826
185.374954,-0.266788,0.011606,-0.080632
185.479737,0.376129,-0.015729,0.165540
185.584521,-0.393844,-0.031917,0.291832
185.689304,0.108731,-0.036498,0.320084
185.794089,0.316572,0.071927,0.255487
185.898872,-0.270911,0.287709,-0.099874
186.003657,-0.036651,0.152101,-0.202343
186.108440,0.002749,0.050853,-0.046272
186.213224,-0.022907,0.138204,-0.188752
186.318007,-0.006872,0.003054,-0.376435
186.422792,0.199136,-0.004429,0.004887
186.527575,-0.146603,-0.231969,0.237467
186.632360,-0.091474,-0.084908,0.064292
186.737142,-0.366661,0.052686,0.128125
186.841927,0.567324,-0.098194,0.211200
186.946710,0.078952,0.037414,0.155155
187.051495,-0.059252,0.054976,-0.040316
187.156277,-0.294886,0.356888,-0.285418
187.261062,0.184476,-0.043676,-0.079257
187.365845,0.114381,0.067193,-0.201427
187.470629,-0.026725,0.071011,-0.257014
187.575412,-0.372770,-0.158209,-0.007636
187.680197,0.641695,-0.118810,0.119573
187.784980,-0.061390,-0.005803,0.083991
187.889764,-0.381627,0.034971,-0.173328
187.994547,-0.240979,0.104913,-0.273049
188.099331,0.532353,-0.029626,0.075134
188.204114,-0.175924,-0.002443,-0.009163
188.308899,0.117283,-0.027488,-0.054213
188.413681,0.539684,-0.029168,-0.032833
188.518466,-0.574044,-0.046119,-0.210895
188.623249,-0.378267,-0.173328,0.179895
188.728033,1.065776,-0.356888,0.575265
188.832816,-1.174354,0.246935,-0.153934
188.937600,0.381627,-0.151490,-0.006872
189.042383,-0.175160,0.024739,0.165081
189.147167,0.664755,-0.054365,0.228915
189.251950,-0.261901,0.380558,-0.558925
189.356734,-0.086740,0.109647,-0.555413
189.461517,-0.570379,-0.339631,-0.235329
189.566301,0.819299,-0.386819,1.175728
189.671084,0.232733,-0.299773,1.353332
189.775868,-0.569462,0.306798,-0.957350
189.880651,1.021031,0.360094,-0.942079
189.985435,-1.433506,-0.480279,0.584428
190.090218,0.893364,-0.230595,0.235482
190.195002,-0.875955,-0.204023,-0.332759
190.299785,0.329094,-0.208146,0.474170
190.404569,-0.076050,-0.635892,0.997208
190.509352,-0.068720,-0.123391,0.660020
190.614136,0.248004,0.047799,0.467604
190.718919,0.308020,0.097430,0.601074
190.823703,-0.031459,0.013744,0.300842
190.928485,0.066124,0.082464,0.228457
191.033270,0.351848,0.009621,0.417820
191.138052,-0.058489,-0.086740,0.398883
191.242836,-0.089336,-0.001985,0.213186
191.347619,-0.224792,-0.059710,0.373228
191.452403,0.440574,-0.130416,0.655134
191.557186,-0.002291,-0.049937,0.589620
191.661970,-0.020922,0.199594,0.192111
191.766752,-0.034666,0.084908,0.330621
191.871537,0.210131,0.153628,0.445919
191.976319,0.146298,0.326192,0.187377
192.081103,-0.178520,0.350932,-0.156835
192.185886,0.072996,0.443322,-0.856561
192.290670,0.060016,0.115297,-0.465771
192.395453,-0.063986,-0.273507,0.109342
192.500237,-0.090405,-0.488372,0.562590
192.605020,-0.173481,-0.200511,0.429273
192.709804,0.375976,-0.190890,0.196846
192.814587,0.007636,-0.290152,0.693464
192.919371,0.369410,-0.373380,0.770431
193.024154,-0.494939,0.030390,0.363912
193.128938,0.211353,0.180658,0.104149
193.233721,0.102470,0.100790,0.309547
193.338506,-0.016187,-0.184476,0.582748
193.443288,-0.013897,-0.007788,0.380711
193.548073,-0.021991,0.043981,0.218683
193.652856,-0.252433,0.078188,0.176382
193.757640,0.086740,0.231511,0.191042
193.862423,-0.400410,0.114534,0.047646
193.967208,-0.041843,-0.140953,-0.067651
194.071991,0.541516,0.113618,0.390942
194.176775,0.869236,-0.289847,0.207688
194.281558,-0.280073,-0.100943,0.195624
194.386343,0.295956,-0.137288,0.997514
194.491126,-0.276714,-0.208757,0.730879
194.595910,-0.047035,0.414765,-0.171037
194.700693,0.355208,0.208757,-0.127514
194.805478,0.233802,0.032833,0.297177
194.910261,-0.116672,0.140342,0.040316
195.015046,-0.364676,-0.050853,0.261748
195.119829,0.196846,-0.080021,0.277936
195.224614,0.141717,0.067193,0.305118
195.329397,0.050700,0.128431,0.129805
195.434181,-0.081548,0.389415,-0.406977
195.538964,0.073607,0.055740,-0.030848
195.643749,0.048715,0.005956,0.297024
195.748532,-0.349405,0.095292,0.288931
195.853317,0.239605,0.350474,-0.291069
195.958100,0.061543,0.170274,-0.739431
196.062885,0.082006,-0.186919,-0.063528
196.167668,-0.137746,-0.483333,0.658493
196.272453,0.109800,-0.138815,0.560758
196.377236,0.128583,0.073302,-0.004276
196.482021,-0.001069,0.154392,-0.089795
196.586804,0.147672,0.112701,-0.293818
196.691588,-0.356124,0.101706,-0.150268
196.796372,0.225097,-0.067346,0.121559
196.901156,0.156835,-0.049479,0.197456
197.005940,-0.678346,0.057878,0.213797
197.110724,0.288473,-0.039705,0.104760
197.215508,0.101553,0.039247,-0.091322
197.320292,0.108731,0.047799,0.011606
197.425076,0.141564,0.099874,-0.175008
197.529860,-0.235940,-0.023059,-0.029779
197.634644,0.132401,-0.099568,0.191501
197.739429,-0.057572,0.048410,-0.188141
197.844212,-0.144924,0.000611,-0.221890
197.948997,0.260221,-0.081090,0.262053
198.053780,-0.055893,-0.116672,0.422554
198.158565,0.142633,0.040316,0.097430
198.263348,-0.404228,0.132096,-0.094529
198.368133,0.132554,0.147214,-0.161264
198.472916,0.074065,0.045355,-0.215782
198.577701,0.025045,-0.034818,-0.085060
198.682484,-0.037567,-0.133470,0.184018
198.787269,-0.049326,0.033138,0.105218
198.892053,-0.166761,0.106135,-0.123391
198.996838,0.134386,0.097888,-0.169510
199.101621,0.057114,-0.005345,0.066735
199.206406,-0.077730,-0.089489,0.121253
199.311189,0.281448,0.098499,-0.058183
199.415974,0.027946,0.067040,-0.145992
199.520757,-0.359178,0.079563,-0.213033
199.625542,0.059405,-0.072080,-0.143244
199.730325,0.030695,-0.084755,0.043981
199.835110,0.039094,-0.121559,0.147672
199.939894,0.027335,-0.010843,0.059863
200.044679,0.127362,0.113618,-0.157293
200.149462,-0.163249,0.014202,0.070247
200.254247,0.106898,0.056656,0.131638
200.359030,0.044592,0.150574,-0.110258
200.463815,-0.118352,0.181727,-0.374297
200.568598,-0.168899,0.136677,-0.343602
200.673383,-0.159431,0.007177,-0.100179
200.778167,0.407588,0.008094,-0.254112
200.882952,-0.009926,0.102317,-0.463328
200.987735,-0.287404,-0.001985,-0.189821
201.092520,0.346350,-0.293207,-0.054365
201.197303,-0.060016,-0.096667,0.042301
201.302088,-0.188294,-0.102622,0.126445
201.406872,0.206925,-0.066430,0.015882
201.511657,-0.083228,-0.105829,0.101401
201.616440,0.097277,0.029473,-0.041385
201.721225,-0.028710,0.137135,-0.356888
201.826008,0.060627,0.006414,-0.221585
201.930793,-0.098957,-0.141869,0.062765
202.035577,0.208146,-0.081854,0.010995
202.140362,-0.135150,-0.015271,-0.162791
202.245145,0.036804,-0.082464,-0.015882
202.349930,0.198525,-0.230900,0.313212
202.454713,-0.324360,-0.152101,0.130416
202.559498,0.234413,-0.195624,-0.015729
202.664282,-0.246171,-0.165387,0.312296
202.769067,0.374907,-0.326345,0.757145
202.873850,-0.071469,-0.195929,0.576640
202.978635,-0.043676,0.045661,0.281142
203.083418,-0.091627,0.161875,0.249226
203.188203,0.270147,0.007330,0.282211
203.292987,-0.317182,0.246171,-0.267704
203.397772,0.589162,0.210590,-0.334286
203.502555,0.642764,0.008094,0.017715
203.607340,-0.059252,-0.033291,0.173328
203.712123,-0.216393,-0.345892,0.568393
203.816908,-0.616803,-0.148894,0.502575
203.921692,0.200816,-0.054213,0.458899
204.026477,-0.439810,-0.132248,0.743554
204.131260,0.699115,-0.137288,0.307714
204.236045,-0.136983,0.044745,0.352459
204.340828,0.047035,0.005650,0.455845
204.445613,0.087657,-0.134386,-0.034818
204.550396,0.012981,0.284349,-0.353986
204.655181,-0.179742,-0.368494,0.936887
204.759964,0.035276,-0.335202,0.979341
204.864749,0.224792,0.038483,0.324971
204.969532,0.192875,0.067346,0.392011
205.074317,0.051006,0.055587,0.387430
205.179100,-0.145229,0.113312,0.237620
205.283885,0.416292,-0.051311,0.530063
205.388668,-0.090253,0.089947,0.458594
205.493453,0.112701,-0.006261,0.403159
205.598236,0.056962,-0.039094,0.636503
205.703021,0.135608,0.134081,0.360705
205.807804,0.215935,0.240979,-0.084908
205.912589,-0.244033,0.072691,-0.016340
206.017372,0.074829,-0.215018,0.574196
206.122157,-0.135455,-0.145534,0.416598
206.226940,0.288167,0.092849,-0.047799
206.331725,0.244950,-0.015271,0.223265
206.436508,-0.148589,-0.069331,0.550526
206.541292,-0.085519,0.098041,0.368646
206.646075,0.153628,0.065208,0.067499
206.750860,0.112090,0.134997,0.203107
206.855643,-0.088878,0.060474,0.386666
206.960428,0.052686,0.028710,0.470200
207.065211,0.103386,0.016035,0.290458
207.169995,-0.315197,0.042301,0.167067
207.274778,0.075134,0.147978,0.030390
207.379563,0.126140,-0.001833,0.199442
207.484346,-0.076967,-0.078036,0.354139
207.589130,0.189668,-0.131943,0.236245
207.693913,0.059099,0.156988,-0.166456
207.798698,-0.049326,-0.003054,-0.012981
207.903481,0.113007,-0.043676,0.344365
208.008265,-0.206466,0.046730,0.331079
208.113048,0.110258,0.157293,0.060474
208.217833,-0.089795,0.210284,-0.030542
208.322616,0.140189,0.136830,-0.082006
208.427400,0.100484,0.034207,0.049479
208.532183,0.196235,0.031764,0.240827
208.636967,-0.203565,0.010690,0.170274
208.741750,-0.125987,0.140648,-0.123697
208.846535,0.001374,0.146451,-0.352612
208.951318,0.033749,0.041996,-0.252585
209.056102,-0.147367,-0.119115,-0.019853
209.160885,-0.468825,-0.074829,0.189668
209.265669,0.087198,-0.200205,0.269689
209.370452,-0.348946,-0.074676,0.338715
209.475237,0.133470,0.085977,0.051006
209.580019,-0.201580,-0.121559,-0.043065
209.684804,0.819146,-0.059405,0.074829
209.789586,0.530674,-0.027335,0.174550
209.894371,-0.049631,0.010232,0.256556
209.999154,-0.031000,-0.018020,0.144618
210.103938,-0.078341,0.233649,-0.089336
210.208721,0.021227,0.326498,-0.363149
210.313505,-0.169052,0.028252,-0.057267
210.418288,0.061237,0.056045,0.140648
210.523072,-0.063223,0.120184,-0.201885
210.627855,-0.084144,0.087198,-0.289847
210.732639,0.169663,-0.035735,-0.220669
210.837422,-0.315961,-0.109494,0.021991
210.942206,0.357040,-0.187377,-0.119879
211.046989,-0.117435,-0.154392,0.063834
211.151773,-0.083228,-0.072996,0.186003
211.256556,0.114076,-0.212880,0.414765
211.361340,0.073760,-0.078799,0.278699
211.466123,-0.221890,0.143549,-0.041385
211.570907,0.048715,0.126598,0.057725
211.675690,0.028710,0.144924,0.059863
211.780474,-0.017256,0.190737,-0.100637
211.885257,0.097583,0.184629,-0.238689
211.990041,-0.076967,0.113770,-0.326192
212.094824,0.058336,-0.030390,-0.195318
212.199608,-0.051158,-0.080326,0.007025
212.304390,0.014660,-0.206772,0.071775
212.409175,-0.008705,-0.058030,-0.070095
212.513957,0.117894,-0.082464,-0.060779
212.618742,0.000305,-0.020005,-0.040469
212.723524,-0.105829,0.015577,-0.071927
212.828308,0.099721,-0.074065,-0.007025
212.933091,0.027641,-0.149810,0.388193
213.037875,-0.009468,-0.089947,0.310158
213.142658,-0.017409,0.162027,-0.208757
213.247442,0.058489,0.049937,-0.172412
213.352224,-0.079563,-0.181422,0.314128
213.457009,-0.018478,-0.102775,0.340547
213.561791,0.017104,-0.024434,0.117894
213.666575,0.206466,0.031306,0.042301
213.771358,-0.086282,-0.016798,0.002749
213.876142,-0.206008,0.191653,-0.100484
213.980924,0.138662,-0.015118,-0.007636
214.085709,-0.108425,0.120642,-0.182491
214.190491,0.098957,-0.009774,0.038942
214.295275,-0.350168,-0.058489,0.253960
214.400058,0.446529,0.132554,0.047341
214.504842,0.010232,0.055587,-0.005192
214.609624,-0.217462,0.026725,-0.053144
214.714408,0.104302,0.004734,-0.102775
214.819191,0.089031,0.061543,-0.079105
214.923975,-0.028099,-0.072538,0.070095
215.028757,-0.095598,0.058183,-0.067040
215.133541,0.071927,0.097277,-0.365439
215.238324,-0.091474,-0.065972,-0.038483
215.343108,-0.075440,0.030695,-0.069331
215.447890,0.148130,0.026572,-0.228457
215.552674,-0.184629,-0.078036,0.017256
215.657457,0.189210,-0.031153,0.109953
215.762241,-0.094834,-0.051006,0.058030
215.867023,0.174855,-0.098194,0.135455
215.971807,0.060627,-0.023059,0.087809
216.076589,-0.080479,-0.017104,0.032222
216.181373,-0.178215,-0.029626,0.041079
216.286156,0.159278,-0.148130,0.073149
216.390940,-0.036040,-0.022601,0.018478
216.495722,0.182338,-0.102164,0.168288
216.600506,-0.269078,-0.017256,0.314586
216.705288,0.093001,0.128583,0.008399
216.810072,0.130263,0.217003,-0.260832
216.914855,-0.201274,0.081395,-0.056198
217.019639,-0.005345,0.090253,0.178215
217.124421,0.169968,0.205550,-0.186461
217.229205,-0.035276,0.242201,-0.385292
217.333987,-0.182338,0.041538,-0.309394
217.438771,0.112396,-0.041232,-0.121711
217.543553,0.039400,-0.062459,-0.199289
217.648337,0.067040,-0.138968,-0.166150
217.753120,-0.092849,-0.078341,-0.147214
217.857903,0.136524,-0.186308,-0.031764
217.962686,0.003512,-0.232427,0.233649
218.067470,-0.019242,-0.105982,0.167219
218.172252,0.009010,-0.062459,0.145076
218.277036,-0.072080,-0.100179,0.236092
218.381818,-0.040469,0.011759,0.240674
218.486602,0.353222,0.057420,0.102775
218.591384,-0.180658,0.032528,0.154544
218.696168,-0.114534,0.016493,0.043828
218.800950,0.071316,0.135455,-0.116214
218.905734,0.018020,-0.034207,-0.108578
219.010516,-0.036956,0.077578,-0.264039
219.115300,-0.074829,-0.093001,-0.103997
219.220082,0.300384,-0.131332,0.303897
219.324866,-0.305882,-0.119879,0.403617
219.429648,0.020311,0.128431,0.054060
219.534432,0.044134,0.086588,0.032528
219.639214,0.023670,0.146909,-0.017562
219.743998,0.027030,0.001833,0.041385
219.848780,0.076967,0.097125,-0.043217
219.953564,-0.003971,0.054671,-0.080479
220.058346,-0.105829,0.155613,-0.368646
220.163130,0.002902,0.016798,-0.157140
220.267912,0.007330,-0.088420,-0.005956
220.372696,0.133165,-0.171190,0.035124
220.477478,-0.059863,0.005192,-0.051158
220.582262,-0.112701,0.003971,-0.104149
220.687044,0.100484,-0.043981,0.050242
220.791828,0.062765,-0.086435,0.338409
220.896610,-0.152712,0.048562,0.265108
221.001394,0.087046,0.208910,-0.032680
221.106176,0.022601,0.242048,-0.418278
221.210959,0.037567,0.157293,-0.626882
221.315741,0.001833,-0.014660,-0.228457
221.420525,-0.004276,-0.254876,0.098041
221.525307,0.020311,-0.120642,0.035429
221.630091,-0.075440,-0.176382,0.000764
221.734873,-0.024281,-0.038942,0.060932
221.839657,0.021380,-0.005498,-0.132096
221.944439,0.040316,-0.051158,-0.025656
222.049222,-0.014355,-0.209826,0.494023
222.154004,0.160653,-0.124002,0.655134
222.258788,-0.025503,0.143702,0.041996
222.363570,-0.117283,0.424997,-0.444391
222.468354,0.052075,0.173481,-0.387430
222.573136,0.019700,-0.024892,-0.233191
222.677919,-0.023518,-0.157293,-0.044745
222.782701,-0.037414,-0.093612,0.088115
222.887485,-0.114992,-0.049173,0.060168
222.992267,0.131485,-0.160042,0.051158
223.097051,-0.051769,0.028404,0.004429
223.201832,0.124307,-0.135455,-0.024281
223.306616,-0.174244,-0.047646,0.220974
223.411398,-0.003665,-0.088573,0.340547
223.516182,0.537851,0.033749,0.038178
223.620964,0.199900,0.111021,-0.022754
223.725747,-0.046883,-0.157904,0.394149
223.830529,-0.090405,0.029473,0.203718
223.935313,0.152101,-0.034207,-0.024281
224.040095,-0.658493,0.134234,0.155919
224.144878,0.073302,0.058336,0.029015
224.249660,-0.413391,0.114839,-0.066277
224.354444,-0.155613,0.230748,-0.204176
224.459225,0.053602,0.130263,-0.349252
224.564009,0.145534,0.116061,-0.306340
224.668791,0.499826,0.015271,0.223265
224.773574,0.099721,-0.191501,0.149810
224.878356,0.007941,0.029779,-0.140037
224.983140,-0.312754,-0.010537,-0.061237
225.087922,0.115908,-0.143091,0.202038
225.192705,0.046577,-0.034818,0.080479
225.297487,-0.113923,0.024434,-0.333370
225.402270,0.274423,0.106593,-0.363912
225.507052,-0.269536,-0.190126,0.158057
225.611836,-0.113312,-0.202343,0.411406
225.716617,0.224792,0.027335,0.151643
225.821401,0.062154,0.135455,0.032833
225.926183,-0.016493,0.172717,-0.175160
226.030966,0.159278,0.187988,-0.186156
226.135748,-0.176993,0.049326,-0.089795
226.240531,-0.075134,0.054518,-0.090100
226.345313,0.021380,-0.132707,-0.021685
226.450097,-0.068720,-0.029626,-0.155613
226.554878,-0.047188,-0.027488,-0.208299
226.659662,0.106593,-0.142480,0.050395
226.764444,-0.090405,-0.145992,0.206466
226.869227,0.136524,-0.081243,0.094681
226.974009,0.124613,0.038178,-0.150268
227.078792,-0.165692,-0.109953,0.227846
227.183574,-0.120184,-0.104760,0.479362
227.288357,0.384681,0.044439,0.021074
227.393139,-0.343602,0.235023,-0.277019
227.497922,0.359636,0.039552,0.028710
227.602704,-0.038178,-0.144924,0.203412
227.707487,-0.292596,0.000000,0.069484
227.812269,-0.174550,0.044745,-0.032986
227.917052,0.477835,0.029779,-0.033291
228.021834,-0.209062,0.004123,-0.142327
228.126617,-0.138662,-0.067346,0.163554
228.231399,0.183101,-0.025656,0.200663
228.336182,0.029932,0.121100,-0.065055
228.440964,-0.071775,0.091780,-0.226624
228.545747,0.040163,0.048562,0.060321
228.650529,0.087809,-0.043370,0.181880
228.755312,0.133776,0.022143,0.055434
228.860094,-0.485318,0.127209,-0.090253
228.964877,0.234413,0.025350,-0.059863
229.069659,-0.052075,0.040010,-0.231969
229.174442,-0.074829,-0.058641,-0.083839
229.279224,0.056045,-0.060627,0.010537
229.384007,0.221432,-0.162791,0.087046
229.488789,-0.369104,-0.041996,0.177298
229.593572,0.276408,0.038789,-0.065361
229.698354,-0.196846,0.204481,-0.329247
229.803137,0.182643,-0.000305,-0.060474
229.907919,-0.167983,-0.139731,0.062306
230.012702,0.387888,-0.021074,0.080021
230.117483,-0.082159,0.011759,0.016187
230.222267,-0.481348,-0.250295,0.241896
230.327048,0.072538,-0.091169,0.378878
230.431832,0.221738,0.037567,0.000764
230.536613,0.098957,0.183712,-0.251822
230.641396,-0.230137,0.077119,-0.161722
230.746178,0.365287,0.061085,0.008094
230.850961,-0.175008,0.015118,0.043523
230.955743,-0.107204,0.116519,-0.304813
231.060526,0.112243,0.118199,-0.207230
231.165308,0.000305,-0.058183,0.086129
231.270091,0.018936,-0.134234,0.201121
231.374872,0.065361,0.093001,0.013286
231.479656,0.019089,0.011148,-0.139426
231.584437,-0.192417,0.038636,-0.144771
231.689220,0.061543,-0.042301,-0.043065
231.794002,-0.052380,-0.165234,0.030237
231.898785,0.172106,-0.118352,0.222196
232.003567,-0.057114,-0.077272,0.151643
232.108350,-0.129194,0.057572,0.086740
232.213131,0.081548,0.095903,0.006414
232.317914,0.065666,0.159278,-0.271063
232.422696,-0.110563,0.181574,-0.248920
232.527479,0.012675,-0.040927,-0.005956
232.632261,0.423623,-0.104760,0.071011
232.737044,-0.552664,-0.039705,0.034360
232.841825,0.062917,-0.040316,0.055282
232.946609,0.124155,0.003054,-0.103844
233.051390,0.029168,-0.076356,-0.069026
233.156173,-0.111174,-0.096208,0.117894
233.260955,0.109800,-0.141258,0.136066
233.365738,0.254571,0.126445,-0.181574
233.470519,-0.418889,0.094223,-0.102622
233.575302,0.078036,-0.119268,0.129958
233.680084,-0.061085,-0.066277,0.044897
233.784867,0.096208,-0.034818,0.200816
233.889648,-0.077578,-0.005192,0.263275
233.994432,0.074982,0.119421,-0.068109
234.099213,0.100484,0.121559,-0.034666
234.203996,-0.013133,0.017409,0.023518
234.308778,-0.055740,0.091627,-0.241743
234.413561,0.050089,-0.067651,-0.108884
234.518342,0.010843,0.005803,-0.025197
234.623125,-0.210590,-0.013286,-0.081854
234.727907,0.265566,-0.256403,0.198373
234.832690,0.051922,0.014355,0.203107
234.937471,-0.209368,0.135455,-0.031153
235.042254,0.044286,0.049631,-0.158668
235.147036,0.078188,0.044745,0.084908
235.251819,-0.045203,-0.050242,0.262970
235.356600,-0.077272,0.091322,0.151185
235.461383,-0.093612,0.115756,-0.142175
235.566165,0.274270,0.209521,-0.382390
235.670948,-0.166609,0.070095,-0.289847
235.775729,0.037262,-0.051922,-0.110411
235.880512,0.111174,-0.067040,-0.271063
235.985294,-0.067651,-0.144160,-0.106898
236.090077,-0.105218,-0.209673,0.213797
236.194858,-0.090864,-0.095445,0.116214
236.299641,0.056809,-0.070553,0.151337
236.404423,0.142327,-0.133776,0.383918
236.509206,0.004123,0.037720,0.166456
236.613987,0.108273,0.138815,0.014966
236.718770,-0.024128,0.171953,-0.123697
236.823551,0.006261,0.170121,-0.325582
236.928335,-0.076661,-0.020158,-0.189363
237.033116,0.026572,-0.140037,0.043828
237.137899,0.047493,-0.062917,0.084755
237.242680,-0.112549,0.001069,0.098194
237.347463,0.116672,-0.005039,-0.049937
237.452245,-0.152406,0.082464,-0.281753
237.557028,-0.036498,-0.014202,-0.053296
237.661809,-0.071927,-0.129652,0.270453
237.766592,0.199747,-0.050089,0.237161
237.871373,0.008094,0.154239,0.025197
237.976156,0.109494,0.130110,-0.266940
238.080938,0.038331,0.115297,-0.362538
238.185721,-0.090100,-0.119421,-0.087962
238.290502,0.015271,-0.304355,0.329552
238.395285,-0.043065,-0.156682,0.215782
238.500066,0.093001,0.022907,-0.146451
238.604849,0.142786,-0.091933,0.123544
238.709631,-0.158362,-0.017867,0.112701
238.814414,-0.110716,-0.033597,0.167525
238.919195,0.039247,0.002596,0.327109
239.023978,0.035887,0.063223,0.259610
239.128759,-0.008246,0.265413,-0.106746
239.233542,-0.155613,0.231817,-0.230595
239.338324,0.309547,0.262512,-0.128125
239.443107,-0.178062,0.164471,-0.212269
239.547888,0.078188,0.210131,-0.301300
239.652671,0.024739,0.064444,-0.234260
239.757452,0.060474,0.141717,-0.234107
239.862235,-0.051158,0.300995,-0.421637
239.967016,-0.159584,0.361163,-0.722938
240.071799,0.411253,0.150574,-0.815787
240.176581,-0.075440,0.051311,-0.457525
240.281364,0.016035,0.000000,-0.205245
240.386145,0.074829,0.016035,-0.240674
240.490928,0.135303,0.037873,-0.545639
240.595709,0.361163,0.033138,-0.423164
240.700492,-0.041385,-0.035124,-0.289389
240.805273,-0.013744,-0.027946,-0.448515
240.910056,0.172870,-0.022907,-0.524718
241.014837,0.029168,0.013133,-0.413238
241.119620,0.206772,-0.116061,-0.295497
241.224401,-0.244186,0.012522,-0.362691
241.329184,0.099110,0.000764,-0.507461
241.433965,0.041538,0.060168,-0.494328
241.538748,0.032528,-0.071622,-0.070553
241.643530,0.205856,-0.128583,0.037109
241.748313,0.030390,-0.091933,-0.278852
241.853094,0.026419,0.120031,-0.607640
241.957877,0.147825,-0.119726,-0.553886
242.062658,-0.020311,-0.201885,-0.215782
242.167441,0.341922,-0.435076,0.016951
242.272222,-0.611916,-0.311685,0.349557
242.377005,0.400410,-0.184476,0.134845
242.481786,-0.048562,-0.021532,-0.078494
242.586569,0.052075,-0.015729,0.171648
242.691350,0.234718,0.003512,0.049937
242.796133,-0.458899,0.113618,-0.108120
242.900914,0.213491,-0.038942,-0.059710
243.005697,-0.037567,0.017256,-0.016951
243.110478,-0.061390,-0.012064,-0.015424
243.215261,0.227388,0.001222,-0.220669
243.320042,-0.317335,0.098957,-0.251974
243.424825,0.210284,-0.139120,-0.080174
243.529606,-0.102928,0.031611,0.071164
243.634389,-0.000764,0.035429,-0.117588
243.739170,0.204939,0.048562,-0.157599
243.843953,-0.026877,-0.047341,0.017867
243.948734,-0.054976,-0.043828,0.029779
244.053517,-0.131638,0.001833,-0.022754
244.158298,-0.011606,-0.055129,-0.064597
244.263080,-0.051617,-0.038178,0.020922
244.367862,0.181422,-0.035124,-0.014966
244.472644,-0.171037,0.057725,-0.074218
244.577425,0.083075,-0.099568,0.185850
244.682208,-0.176229,0.016798,-0.034818
244.786989,0.850758,0.207535,-0.455234
244.891772,0.438894,0.089184,-0.156835
244.996553,-0.301453,-0.089795,-0.124155
245.101336,-0.221890,-0.218531,0.105982
245.206117,-0.474934,-0.272591,0.741263
245.310900,-0.126904,0.020463,0.258236
245.415681,0.091780,0.109494,-0.096361
245.520464,-0.138968,0.215629,-0.203259
245.625245,-0.199442,0.196693,-0.137288
245.730028,0.005039,0.108120,0.047493
245.834809,-0.017104,0.189363,-0.010537
245.939591,0.003818,0.402090,-0.352612
246.044372,-0.091322,0.535102,-0.709041
246.149155,0.173939,0.474017,-0.775471
246.253936,-0.066735,0.445613,-0.950478
246.358719,0.200358,0.319626,-0.893364
246.463500,-0.898404,0.470352,-0.738362
246.568283,1.258651,0.070247,-0.616956
246.673064,0.761879,0.322222,-0.791963
246.777846,0.694839,0.468978,-1.785048
246.882627,0.018325,0.285724,-1.676928
246.987410,0.469742,-0.293512,-0.959794
247.092191,0.575571,-0.596950,-0.332912
247.196974,0.307714,-0.611458,-0.096667
247.301755,0.072080,-0.821284,0.534033
247.406538,0.004123,-0.586719,0.509141
247.511319,0.003512,-0.269078,0.121559
247.616101,-0.051464,-0.218836,0.231817
247.720882,-0.033138,-0.200052,0.474170
247.825665,0.000305,-0.078799,0.257625
247.930446,-0.029779,0.015882,-0.003207
248.035229,0.023212,0.137899,-0.228304
248.140010,-0.032528,-0.085213,-0.099721
248.244792,0.073302,-0.173786,-0.018784
248.349573,0.026114,-0.224486,0.367425
248.454356,0.086129,-0.311379,0.607029
248.559137,-0.198983,0.099568,0.073454
248.663919,-0.027794,0.115450,-0.053296
248.768700,-0.004887,-0.040316,0.333981
248.873483,0.256861,-0.057572,0.457372
248.978264,0.012522,0.293054,0.105218
249.083047,0.040010,0.417361,-0.319168
249.187828,0.080479,0.223570,-0.186003
249.292610,-0.222348,0.162944,-0.497993
249.397391,0.028099,0.047188,-0.267857
249.502174,0.058336,-0.296566,0.252891
249.606955,-0.003818,-0.171343,0.102317
249.711737,0.048257,-0.031153,-0.054976
249.816518,-0.115297,-0.080021,0.097125
249.921301,0.149352,0.018325,0.076661
250.026082,-0.101553,0.054518,0.003360
250.130865,0.159431,-0.111174,0.078494
250.235645,-0.121711,-0.048410,0.129347
250.340428,-0.110563,0.087046,0.168594
250.445209,0.091780,0.023212,0.143091
250.549992,0.022296,0.136066,-0.186767
250.654772,-0.147367,0.012828,-0.088573
250.759555,0.041690,-0.105066,0.069942
250.864336,0.042759,-0.070247,0.075134
250.969119,0.022296,-0.081701,0.032069
251.073899,-0.060321,0.063528,-0.126904
251.178682,-0.021227,-0.003665,0.109647
251.283463,-0.066430,0.030237,0.045050
251.388246,0.132096,0.152712,-0.229220
251.493026,-0.035276,-0.040163,0.110563
251.597809,0.169663,-0.003054,0.275034
251.702590,-0.038636,0.086740,-0.049326
251.807372,-0.035124,0.054213,0.007483
251.912153,0.064139,0.006719,-0.057725
252.016936,-0.084450,0.091780,-0.221127
252.121717,-0.012828,0.012981,-0.234718
252.226499,0.076509,-0.105829,-0.164318
252.331280,-0.039858,-0.143091,0.041996
252.436063,0.050853,-0.159431,0.191959
252.540844,-0.006414,-0.026877,0.240674
252.645626,0.007636,-0.007025,0.130721
252.750407,-0.081701,0.064597,0.112854
252.855190,-0.008552,0.121100,0.043217
252.959970,0.052075,0.166150,-0.098499
253.064753,-0.019547,0.074218,-0.193028
253.169534,-0.044439,0.065972,-0.242812
253.274317,-0.229373,-0.039552,-0.148589
253.379098,0.263733,-0.091627,0.006872
253.483880,0.147672,-0.095292,0.056351
253.588662,-0.354750,-0.126293,0.154544
253.693444,0.123849,0.006108,0.015729
253.798225,0.309394,0.100332,-0.227846
253.903008,-0.089489,0.116977,-0.234718
254.007789,-0.101095,-0.171648,0.193639
254.112572,0.032375,-0.168441,0.463786
254.217353,-0.009774,-0.019853,0.163249
254.322136,0.103844,0.123697,0.070247
254.426917,-0.007330,0.087351,-0.144313
254.531700,-0.088878,0.060779,-0.239452
254.636481,0.007636,0.042912,-0.146451
254.741264,0.016340,0.011912,-0.229984
254.846045,-0.034971,-0.036651,-0.173328
254.950828,-0.038636,-0.089642,-0.071164
255.055610,0.003665,-0.200052,0.225861
255.160393,0.000916,-0.211353,0.381932
255.265174,0.155308,-0.158668,0.521053
255.369957,-0.025045,0.085824,0.223876
255.474738,-0.030695,0.269842,-0.159126
255.579521,-0.015118,0.168594,-0.238841
255.684302,0.051922,0.045355,-0.109342
255.789085,-0.048868,-0.097736,-0.146756
255.893866,0.094681,0.020616,-0.087809
255.998649,-0.033291,-0.139579,0.105982
256.103431,0.052380,-0.120337,0.326803
256.208214,-0.068568,0.061543,0.096819
256.312995,0.034207,0.184018,-0.141564
256.417778,-0.057114,0.143702,-0.084908
256.522559,0.060168,0.048257,0.034207
256.627342,-0.031459,0.139884,-0.073760
256.732124,-0.056656,0.023518,-0.157140
256.836907,-0.021074,0.157140,-0.278546
256.941688,0.150421,-0.060016,-0.200511
257.046471,-0.092849,-0.185392,0.001680
257.151253,-0.025197,-0.212422,0.129041
257.256036,0.182491,-0.124002,0.156071
257.360817,0.029168,-0.029626,0.105524
257.465600,-0.008552,0.049631,-0.091016
257.570382,-0.007941,0.047646,-0.087962
257.675165,-0.060474,-0.024128,0.199594
257.779946,0.084755,0.013133,0.254265
257.884730,0.008399,0.098194,-0.078952
257.989511,-0.081243,0.112243,-0.313823
258.094294,0.297330,0.026572,-0.198831
258.199076,-0.162791,-0.239910,0.147367
258.303859,-0.099110,-0.248004,0.333981
258.408640,0.018478,0.027641,-0.038789
258.513423,-0.031306,-0.034971,0.062765
258.618205,-0.030695,-0.050548,0.274118
258.722988,-0.052533,0.092696,-0.018325
258.827769,0.009163,0.057572,0.051006
258.932553,0.067040,0.060474,0.128583
259.037334,0.031306,0.210895,-0.035124
259.142117,-0.023823,0.083686,-0.105829
259.246899,0.002138,-0.012522,-0.039552
259.351682,-0.044897,-0.020311,-0.125835
259.456463,0.035124,-0.045050,-0.184323
259.561246,0.031153,-0.015424,-0.134539
259.666028,0.022754,-0.163402,0.000611
259.770811,-0.013591,-0.222043,0.376435
259.875593,-0.008705,-0.017715,0.179131
259.980376,-0.073760,0.016187,0.014508
260.085157,0.027641,-0.002138,0.280379
260.189940,0.162333,-0.028099,0.258999
260.294722,-0.428204,0.274881,-0.132401
260.399505,0.202801,0.114687,-0.346045
260.504287,0.286487,0.008246,-0.146451
260.609070,-0.113007,-0.149047,0.181727
260.713851,-0.085671,-0.186003,0.250600
260.818635,0.194249,0.056045,0.040010
260.923416,-0.185698,-0.007483,-0.064903
261.028199,-0.105829,0.120642,-0.097125
261.132981,0.062612,-0.001680,-0.068415
261.237764,0.011453,-0.140189,0.193333
261.342545,-0.053755,-0.162791,0.450653
261.447329,0.015271,0.010995,0.334439
261.552110,0.043828,0.151643,-0.100484
261.656893,-0.158973,0.217462,-0.417361
261.761675,0.076203,0.015729,-0.206619
261.866458,0.019089,-0.215171,0.115908
261.971240,0.046883,-0.163096,0.330163
262.076023,0.025961,-0.109953,0.287098
262.180804,0.005498,0.042301,0.030542
262.285588,-0.086129,0.106593,-0.034666
262.390369,-0.059405,-0.083991,0.223112
262.495152,0.388499,0.001527,0.265260
262.599934,-0.387124,0.106440,0.065208
262.704717,-0.007330,0.064444,0.029168
262.809499,0.086740,0.164165,-0.149352
262.914282,0.035124,0.077730,-0.189515
263.019063,0.148894,-0.020616,-0.164471
263.123847,-0.025961,-0.164165,0.159278
263.228628,0.142786,0.004581,0.088878
263.333411,-0.073760,-0.180353,0.039400
263.438193,-0.083381,-0.138968,0.301453
263.542976,0.001527,-0.179742,0.513264
263.647758,0.201580,0.062001,0.449889
263.752541,-0.030237,0.395829,-0.058794
263.857322,0.084908,0.398425,-0.516013
263.962106,-0.128125,0.181116,-0.424386
264.066887,0.017409,0.040163,-0.168136
264.171670,0.018631,-0.128125,-0.156835
264.276452,0.000305,-0.127362,-0.116825
264.381235,0.025961,-0.238841,0.135303
264.486017,-0.053755,-0.272591,0.302675
264.590800,0.014049,-0.078036,0.120642
264.695582,-0.007788,-0.016340,0.035582
264.800365,-0.077425,-0.089031,0.253807
264.905146,0.081395,-0.014049,0.271369
265.009930,-0.009010,-0.013591,0.253349
265.114711,0.199442,0.061085,0.179284
265.219495,-0.231969,0.148894,0.101095
265.324276,0.104913,0.151643,-0.222807
265.429059,-0.281448,0.114839,-0.220669
265.533841,0.688425,0.040010,-0.202038
265.638624,-0.295803,-0.029015,-0.035276
265.743406,-0.025197,-0.050853,0.083991
265.848189,-0.175313,-0.016187,0.119726
265.952971,0.163707,-0.060016,0.176535
266.057754,-0.080021,0.094376,-0.007941
266.162535,0.044745,0.047799,0.008094
266.267319,-0.036040,-0.052686,0.088878
266.372100,-0.018478,0.072844,-0.227846
266.476884,0.144924,-0.027335,-0.098805
266.581665,-0.130263,-0.094223,0.159737
266.686448,0.055282,-0.133776,0.209826
266.791230,0.025808,0.058336,0.108273
266.896013,-0.017867,0.100790,-0.065513
267.000795,-0.035429,0.128583,-0.133012
267.105578,-0.037873,0.050089,0.052533
267.210360,-0.013744,0.052533,0.039858
267.315143,0.048868,0.185087,-0.241743
267.419925,0.002596,0.092238,-0.329399
267.524708,-0.037262,-0.052533,-0.152559
267.629490,0.031459,-0.148436,0.062765
267.734273,0.012675,-0.184170,0.101095
267.839055,0.017256,-0.095139,-0.021532
267.943838,-0.039552,-0.147672,0.162180
268.048620,-0.027488,-0.080174,0.195777
268.153403,0.074829,0.047035,0.033597
268.258185,-0.009468,0.056656,0.094070
268.362968,0.006719,0.046272,0.148894
268.467750,0.009621,0.165081,-0.195013
268.572533,0.065972,0.174550,-0.288320
268.677315,0.005956,-0.045814,-0.050548
268.782098,0.004581,-0.196540,0.199594
268.886880,-0.019089,0.020463,0.091780
268.991663,0.004581,-0.030542,-0.100943
269.096445,-0.039552,0.057572,-0.017104
269.201228,0.015118,0.060321,-0.032986
269.306010,0.027030,0.061696,-0.141564
269.410793,-0.000153,0.049326,-0.078341
269.515575,0.035124,0.012370,0.103539
269.620358,-0.072691,0.058794,-0.058030
269.725140,0.089336,0.049173,-0.167983
269.829924,-0.049784,-0.045814,-0.080937
269.934705,-0.058641,-0.032986,-0.093307
270.039489,0.077730,-0.121253,0.035276
270.144271,-0.030542,-0.017715,-0.160042
270.249054,0.044439,-0.139579,0.023823
270.353836,0.026114,-0.055587,0.086893
270.458619,-0.091780,-0.035735,0.033749
270.563401,0.013439,-0.025045,0.041079
270.668185,-0.018478,-0.059863,0.217767
270.772967,-0.026725,-0.009163,0.161416
270.877750,0.053144,0.100637,-0.077883
270.982532,0.036498,0.026419,0.057267
271.087315,-0.047035,-0.051617,0.067957
271.192097,0.037873,0.043523,-0.089489
271.296881,0.037414,0.033444,-0.095445
271.401663,-0.007941,-0.069789,0.055893
271.506446,-0.050242,-0.004276,0.085060
271.611228,0.020769,0.003512,-0.021532
271.716012,0.005956,-0.005192,-0.015729
271.820793,0.044286,0.017104,0.047646
271.925577,-0.068262,-0.038331,0.003207
272.030359,0.037262,-0.032222,0.045966
272.135142,-0.038483,-0.081548,0.356582
272.239924,0.045814,-0.127972,0.355513
272.344708,-0.019089,0.224181,-0.286335
272.449489,0.044592,0.195013,-0.457525
272.554273,-0.029321,-0.097736,-0.124155
272.659055,0.038942,-0.128431,0.202343
272.763838,0.010995,-0.175008,0.456914
272.868620,0.028710,0.011148,0.357040
272.973404,0.002443,0.218836,0.048715
273.078186,0.073149,0.306951,-0.258541
273.182969,0.025197,0.193180,-0.401174
273.287751,-0.095445,0.107815,-0.370784
273.392535,-0.022754,-0.142175,-0.110105
273.497316,0.056809,-0.143091,0.000611
273.602100,0.013744,-0.110716,-0.012675
273.706882,0.005803,-0.130569,0.000458
273.811665,0.021227,-0.154392,0.147978
273.916447,0.061543,-0.244797,0.286793
274.021231,-0.079563,0.050395,0.140342
274.126012,-0.069178,-0.045508,0.203107
274.230796,0.111785,0.053602,0.124766
274.335578,0.047952,0.091933,0.051158
274.440361,-0.077119,-0.000916,0.078647
274.545143,-0.052380,-0.025961,0.136066
274.649927,-0.030390,0.024739,0.054671
274.754708,0.052075,0.038636,-0.049173
274.859492,-0.024434,0.116061,-0.096208
274.964274,0.004276,0.025961,-0.003512
275.069057,-0.059405,0.063070,-0.007483
275.173839,0.010384,0.073760,0.010995
275.278623,-0.137135,0.055893,-0.083991
275.383404,0.125835,0.215476,-0.222043
275.488188,0.081243,0.035735,-0.239147
275.592970,-0.054976,-0.126445,0.017104
275.697753,-0.022601,-0.133470,0.229984
275.802535,0.082006,-0.160806,0.248157
275.907318,0.029168,0.016035,0.042912
276.012100,0.068415,0.077272,-0.113923
276.116884,-0.035276,-0.011606,-0.031459
276.221665,-0.131485,0.131179,-0.091474
276.326449,-0.071622,0.109036,-0.181269
276.431231,-0.093307,0.081243,-0.046730
276.536014,0.075134,0.066124,-0.066735
276.640796,0.148741,0.100637,-0.044897
276.745579,-0.004734,0.009774,-0.102011
276.850361,-0.107356,0.096972,-0.219600
276.955145,0.004276,-0.013286,-0.338104
277.059926,0.055434,-0.136830,-0.208452
277.164710,0.018020,-0.144618,-0.005498
277.269492,-0.010537,-0.188446,0.165234
277.374275,0.104149,-0.169510,0.216698
277.479057,0.205856,0.045203,-0.003360
277.583840,-0.545792,-0.111480,0.102470
277.688622,0.241132,0.051006,0.040469
277.793405,-0.022143,0.076203,0.012675
277.898187,0.193333,0.151796,-0.074371
278.002971,-0.052380,-0.026725,-0.072233
278.107752,0.106898,-0.128736,0.027183
278.212536,-0.165234,-0.082770,0.010843
278.317317,0.046424,-0.101553,0.043217
278.422101,-0.023059,0.015271,0.044439
278.526883,-0.076356,0.047035,-0.054671
278.631666,0.021991,-0.077425,0.077272
278.736448,-0.017715,-0.031917,0.334133
278.841231,0.174702,0.097277,0.102011
278.946013,-0.072385,0.154697,-0.109189
279.050796,-0.091627,0.147367,-0.232886
279.155578,0.098499,0.076967,-0.222959
279.260362,-0.046883,-0.146603,0.011759
279.365143,0.222807,0.025503,-0.070858
279.469927,-0.023518,-0.012217,-0.088726
279.574709,-0.227235,-0.126445,0.148436
279.679492,0.066124,-0.071164,0.197456
279.784274,0.032528,0.054976,-0.071469
279.889057,0.171495,0.022143,-0.111021
279.993839,-0.252433,0.007636,0.056962
280.098623,-0.115297,0.016798,0.201427
280.203404,0.277325,-0.001985,-0.173939
280.308188,-0.276256,0.020769,-0.310310
280.412970,0.304660,-0.292749,0.392469
280.517753,-0.153628,-0.082923,0.157751
280.622535,0.457983,-0.074982,0.146756
280.727319,-0.263581,0.135914,0.014813
280.832101,-0.277630,0.149505,-0.392011
280.936885,0.177757,-0.170121,0.340700
281.041667,0.018631,-0.034207,0.630089
281.146450,-0.007177,0.242812,-0.315044
281.251232,-0.252433,0.398425,-0.827240
281.356016,0.157904,-0.029321,-0.082312
281.460798,0.127056,-0.322222,0.286029
281.565582,-0.088573,-0.149658,0.212117
281.670364,0.176077,0.027030,0.008705
281.775147,-0.111785,-0.011148,-0.041385
281.879929,0.118810,-0.092543,0.152865
281.984713,-0.107509,0.089489,0.021685
282.089495,-0.075745,0.059558,-0.104302
282.194279,0.085213,0.146451,-0.094529
282.299061,0.061543,0.072233,0.010232
282.403845,-0.032528,-0.064750,0.016340
282.508627,-0.094834,-0.031764,-0.017867
282.613411,0.092849,-0.027794,-0.005650
282.718193,0.062154,-0.105371,0.070095
282.822977,-0.089031,0.002596,0.029473
282.927759,-0.125835,0.015424,-0.025045
283.032542,0.091474,0.041385,0.020311
283.137325,-0.047799,0.106898,-0.082464
283.242108,0.131332,0.042759,-0.125835
283.346891,-0.047952,0.056656,-0.089336
283.451674,-0.120948,0.054213,-0.123544
283.556457,0.000916,-0.060168,-0.117283
283.661240,0.039858,-0.069637,0.022754
283.766023,0.007788,-0.186308,0.192264
283.870806,0.094223,-0.152406,0.100179
283.975589,-0.132248,-0.020922,0.079105
284.080372,0.187836,-0.101401,0.111785
284.185155,0.053602,0.002138,0.194555
284.289938,-0.090558,0.078036,0.091933
284.394721,0.211506,0.062306,-0.023059
284.499505,-0.094681,0.149963,-0.133165
284.604287,0.010690,0.104608,-0.044286
284.709071,-0.016035,0.114687,-0.065666
284.813853,-0.074371,0.031764,-0.127362
284.918637,-0.074523,-0.024434,-0.019700
285.023419,0.090253,0.024587,-0.126904
285.128203,0.035429,-0.024587,-0.222807
285.232985,-0.017867,-0.071927,-0.070400
285.337769,0.028557,-0.157599,0.086435
285.442551,-0.093765,-0.115450,0.252280
285.547335,-0.127514,-0.038331,0.187072
285.652118,-0.064597,0.027183,0.026419
285.756902,0.056198,0.067957,-0.002443
285.861684,0.046424,0.057572,-0.079716
285.966468,-0.006872,-0.025045,-0.069942
286.071250,0.060627,-0.082770,0.204939
286.176034,-0.023823,-0.075592,0.266788
286.280816,-0.042301,-0.052075,0.107662
286.385600,0.094987,0.140648,-0.124155
286.490383,-0.007636,0.106135,-0.265719
286.595167,-0.049326,0.012370,-0.034360
286.699949,-0.051922,-0.014508,0.135761
286.804733,0.044897,-0.006261,0.084144
286.909515,-0.014355,0.056351,-0.024434
287.014299,-0.011301,0.076967,0.027641
287.119081,0.057267,0.138204,-0.100026
287.223865,-0.078341,0.126904,-0.233191
287.328647,-0.037262,-0.001222,-0.167525
287.433431,0.070858,-0.033749,-0.137135
287.538214,0.042148,-0.030848,-0.098805
287.642998,-0.003818,-0.131943,-0.026572
287.747780,0.015271,-0.096514,-0.049173
287.852564,0.056809,-0.197609,0.131027
287.957346,0.056351,-0.127209,0.305118
288.062130,-0.066888,-0.091627,0.219905
288.166912,-0.064139,-0.012370,0.131179
288.271696,0.078188,0.098499,0.022907
288.376478,0.027794,0.084908,0.036040
288.481262,-0.026114,-0.040774,0.119115
288.586045,0.035735,0.084144,-0.025656
288.690829,0.042454,0.135150,-0.131485
288.795611,0.004581,0.103233,-0.155613
288.900395,-0.086588,0.043981,-0.060779
289.005177,0.160195,0.083686,-0.149963
289.109961,-0.071011,-0.102928,-0.079410
289.214743,0.111021,-0.090253,0.024128
289.319527,0.023212,-0.092543,0.128889
289.424310,-0.088878,0.005192,0.039705
289.529094,-0.064750,0.040163,-0.101553
289.633876,-0.100484,-0.025045,0.077730
289.738660,-0.051311,0.003971,0.057267
289.843442,0.083075,0.009010,-0.035582
289.948226,0.061848,0.031000,-0.024128
290.053009,0.110869,0.008552,-0.061543
290.157793,-0.093612,0.025350,-0.142786
290.262575,-0.032528,-0.140342,0.211353
290.367359,-0.011606,-0.173175,0.237009
290.472141,0.086435,-0.050548,0.132859
290.576925,0.112549,0.054671,-0.115756
290.681707,-0.152559,0.086740,0.001222
290.786491,-0.005039,0.018936,0.031611
290.891274,-0.126751,0.127820,-0.133776
290.996058,0.072844,0.102164,0.030390
291.100840,0.060627,-0.052838,0.151796
291.205624,-0.140495,0.083533,0.129652
291.310406,-0.030084,0.062917,-0.015424
291.415190,0.063834,0.057267,-0.076814
291.519972,-0.012981,0.130874,-0.298246
291.624756,-0.033749,0.041843,-0.308783
291.729539,0.055893,0.108273,-0.306798
291.834323,-0.235940,-0.027335,-0.268009
291.939105,0.181727,0.058641,-0.240827
292.043889,0.259610,-0.041996,-0.175160
292.148671,-0.113923,-0.030542,-0.216240
292.253455,-0.114076,-0.146298,-0.089184
292.358237,0.200816,-0.234413,0.176382
292.463022,-0.043065,-0.285418,0.340089
292.567804,0.002291,-0.180964,0.443017
292.672588,0.081548,-0.078799,0.310921
292.777370,-0.026877,-0.013591,0.226930
292.882154,0.020311,-0.000305,0.053296
292.986936,-0.019547,0.240368,-0.333828
293.091720,0.086740,-0.023976,-0.115603
293.196802,-0.028404,-0.015882,0.007483
293.303684,-0.039400,-0.058183,0.017409
293.408564,-0.023212,-0.029779,0.107815
293.513348,0.041843,-0.117435,0.338715
293.618130,-0.082159,0.017562,0.274270
293.722914,-0.051922,0.138968,0.016340
293.827696,0.132401,0.138968,-0.276103
293.932480,-0.031153,-0.011759,0.025808
294.037262,-0.065513,-0.080632,0.218072
294.142046,0.107356,-0.053755,-0.015882
294.246829,-0.016187,0.063070,-0.015882
294.351613,-0.142786,0.010995,-0.026114
294.456395,-0.006261,-0.053144,0.119573
294.561179,0.177909,0.058336,0.027488
294.665961,-0.021991,0.101859,-0.130874
294.770745,-0.119573,-0.074218,0.374602
294.875527,0.178673,0.040927,0.171190
294.980311,0.058183,0.249378,-0.265871
295.085093,-0.065361,0.194860,-0.406213
295.189877,-0.041996,0.082006,-0.280379
295.294660,-0.065055,-0.071164,-0.057420
295.399443,-0.015882,-0.125376,0.015729
295.504226,0.020463,-0.041690,-0.093460
295.609009,0.083228,-0.113159,-0.016493
295.713792,-0.014660,-0.021838,0.071316
295.818575,0.041385,0.007483,-0.064903
295.923358,0.024892,0.028863,-0.136066
296.028141,-0.052686,-0.094070,0.177146
296.132924,0.085519,-0.079105,0.268009
296.237707,-0.088267,0.114992,0.066888
296.342490,0.011912,-0.004123,-0.063986
296.447273,0.000764,-0.008552,-0.097430
296.552055,-0.024281,-0.062306,-0.097736
296.656839,-0.096514,-0.044897,0.060932
296.761621,0.168594,-0.029321,-0.077730
296.866405,-0.019242,-0.101248,0.061696
296.971187,-0.135303,-0.067804,0.276714
297.075971,-0.086282,0.019700,0.162791
297.180753,0.192722,0.070706,0.077883
297.285537,-0.212728,0.083839,0.031153
297.390319,0.432327,0.191348,-0.254265
297.495102,-0.061085,-0.007636,-0.089031
297.599884,-0.152712,-0.182032,0.229373
297.704668,0.074218,-0.044745,0.223723
297.809450,0.000764,0.071622,-0.103233
297.914234,-0.072385,0.036651,-0.209673
298.019016,-0.056503,-0.072996,-0.084602
298.123799,0.037414,-0.101706,0.167830
298.228581,0.065972,-0.017715,0.227693
298.333365,0.136524,-0.010537,0.092849
298.438147,-0.025503,0.114839,0.062001
298.542930,-0.085213,0.215324,-0.049173
298.647712,-0.151185,0.118199,-0.129958
298.752496,0.071469,0.100484,-0.207383
298.857278,-0.050242,0.044134,-0.297635
298.962061,0.136524,-0.124155,-0.189668
299.066843,0.018631,-0.138051,0.077119
299.171627,0.140037,-0.222959,0.137135
299.276409,-0.051617,-0.049937,0.120031
299.381192,-0.130416,-0.030848,0.131485
299.485974,0.027183,0.007025,0.133623
299.590758,0.108578,0.025961,0.109189
299.695540,-0.028557,0.036345,0.036498
299.800323,-0.082006,0.133776,-0.071164
299.905105,-0.030237,0.086129,-0.109800
300.009889,0.081090,-0.002291,0.067499
300.114671,0.054671,0.018784,-0.023059
300.219455,-0.002443,0.047341,-0.108578
300.324237,0.053602,0.131485,-0.248157
300.429020,-0.017715,0.012981,-0.221127
300.533802,-0.122322,-0.020311,-0.009774
300.638586,0.073302,-0.057725,0.070706
300.743368,0.016035,-0.084908,0.030237
300.848152,-0.119115,0.072844,-0.059252
300.952934,-0.018478,0.058183,-0.114381
301.057718,0.124307,-0.034207,-0.203107
301.162500,0.132096,-0.149658,-0.004734
301.267283,-0.187072,-0.209521,0.329858
301.372066,0.084297,-0.216851,0.439046
301.476849,-0.018020,0.045814,0.150574
301.581631,0.083075,0.063070,0.050548
301.686415,-0.078188,0.116825,-0.003360
301.791197,-0.033902,0.255640,-0.239299
301.895981,0.021685,0.230748,-0.363912
302.000763,0.054671,0.043828,-0.065208
302.105547,-0.067193,0.056045,-0.080632
302.210329,-0.101553,0.100484,-0.321306
302.315113,0.134234,-0.000153,-0.283586
302.419895,0.036804,-0.148283,0.051464
302.524679,-0.219141,-0.049784,0.019242
302.629461,0.112701,-0.206466,-0.054671
302.734245,0.058336,-0.037414,0.063375
302.839027,0.060627,-0.188752,0.095903
302.943811,-0.082312,-0.082923,0.015577
303.048593,0.018173,-0.091169,0.154086
303.153377,0.100179,0.037720,0.107051
303.258159,-0.070095,-0.074829,0.200663
303.362943,0.103386,0.010690,0.242964
303.467725,-0.076814,0.136677,0.033444
303.572509,-0.038025,0.194402,-0.273049
303.677291,-0.167525,0.037873,-0.206772
303.782075,0.134539,-0.080174,0.087962
303.886857,0.074523,-0.112549,0.151643
303.991641,-0.069942,-0.018631,0.006719
304.096423,0.051922,-0.034971,0.086129
304.201207,-0.010384,-0.013286,0.175619
304.305989,0.021227,0.166456,-0.030695
304.410773,-0.055740,0.113312,-0.175466
304.515555,-0.025808,0.098652,-0.138662
304.620339,-0.008552,0.093460,-0.256403
304.725121,0.100026,0.062917,-0.191959
304.829905,0.123544,-0.045203,-0.041385
304.934687,-0.139120,-0.151185,0.123697
305.039471,0.018936,-0.155155,0.209521
305.144253,-0.074982,-0.045814,0.139273
305.249037,-0.058794,-0.025045,0.044286
305.353819,0.132401,0.074523,-0.212422
305.458603,0.069942,0.068109,-0.137593
305.563385,-0.048868,-0.048562,-0.025503
305.668169,-0.101248,0.054518,-0.109494
305.772951,-0.060016,0.056962,-0.003818
305.877735,0.140953,-0.043523,0.031459
305.982517,0.118657,-0.077425,0.084755
306.087301,-0.225555,-0.110563,0.211811
306.192083,0.068109,-0.083075,0.290152
306.296867,0.213033,0.017867,-0.017562
306.401649,-0.036804,0.116366,-0.070247
306.506433,0.052075,0.093001,-0.194097
306.611215,0.050700,0.028252,-0.199289
306.715999,-0.132707,0.062917,-0.167372
306.820782,-0.048410,-0.036193,-0.081090
306.925565,-0.080021,-0.195929,0.271980
307.030348,0.090558,-0.124766,0.311990
307.135131,0.086282,0.096514,0.091169
307.239914,-0.040316,0.103997,-0.041996
307.344697,-0.299010,0.137441,-0.189057
307.449480,0.328789,0.034360,-0.219294
307.554263,-0.220210,-0.007483,-0.049479
307.659046,0.197762,0.042607,0.012064
307.763829,0.185850,-0.007330,-0.274423
307.868612,-0.138204,0.086588,-0.417820
307.973396,0.127667,-0.190126,-0.082770
308.078178,-0.189057,-0.403159,0.596645
308.182962,0.003512,0.009926,0.264039
308.287744,0.070858,0.102775,-0.339326
308.392528,-0.082617,-0.021685,-0.261137
308.497310,0.164929,-0.173328,0.330468
308.602094,-0.057878,-0.253960,0.559842
308.706876,-0.116825,0.065513,0.139426
308.811659,0.086893,0.220058,-0.236703
308.916442,0.060932,0.033749,0.024434
309.021225,0.083228,0.001527,0.240368
309.126008,-0.101859,0.107509,0.357040
309.230791,0.074523,0.210742,0.188446
309.335574,0.119268,0.380252,-0.300995
309.440357,-0.229068,0.422401,-0.555260
309.545140,-0.065361,0.506851,-0.925739
309.649923,-0.015424,0.349557,-0.848772
309.754706,0.094223,0.162944,-0.547777
309.859489,0.182032,0.163860,-0.607335
309.964272,0.107509,0.223723,-0.865723
310.069055,0.189821,0.131027,-0.714997
310.173837,0.209673,-0.039552,-0.622301
310.278621,-0.009468,-0.029321,-0.600616
310.383403,0.215629,-0.164318,-0.293207
310.488187,0.190126,-0.101248,-0.468367
310.592970,0.159126,-0.130874,-0.438894
310.697753,-0.269842,-0.088573,-0.233802
310.802536,0.327261,-0.218072,-0.094529
310.907320,-0.029626,-0.109494,0.185850
311.012102,0.015271,0.089642,0.029168
311.116886,-0.151337,0.316724,-0.559536
311.221668,0.296108,0.258083,-0.650858
311.326452,-0.000611,0.225555,-0.745234
311.431234,0.083839,0.158668,-0.682927
311.536018,-0.075440,0.064444,-0.607335
311.640801,0.019700,-0.066124,-0.648872
311.745585,0.213338,-0.213186,-0.316266
311.850367,0.163096,-0.093612,-0.263122
311.955151,0.048257,-0.080632,-0.339631
312.059934,-0.055740,0.072233,-0.612374
312.164717,0.017715,-0.002138,-0.640931
312.269500,-0.424233,-0.139426,-0.341616
312.374284,-0.408351,-0.172870,-0.124460
312.479066,-0.018936,-0.109953,-0.106135
312.583850,0.807998,-0.081243,-0.176993
312.688633,0.905428,-0.104149,0.142327
312.793417,-0.211964,-0.212117,0.342533
312.898199,0.187377,0.124307,-0.144465
313.002983,-0.161264,0.152712,-0.526245
313.107766,-0.167830,0.114687,-0.720342
313.212550,0.211506,-0.117130,-0.562285
313.317332,0.261443,-0.426066,0.085213
313.422116,-0.391248,-0.292596,0.331995
313.526899,-0.038483,-0.141869,0.243881
313.631683,0.188599,-0.022601,0.150574
313.736465,-0.012828,0.093001,-0.032375
313.841249,0.274118,0.113312,-0.191959
313.946032,-0.065055,0.016035,-0.226319
314.050816,-0.296566,-0.030695,-0.007788
314.155598,0.129347,-0.083228,-0.087198
314.260382,0.188599,-0.149199,-0.056351
314.365164,-0.207688,-0.129805,-0.057267
314.469948,0.091474,-0.132248,0.161875
314.574731,0.069026,-0.146298,0.513875
314.679515,-0.006719,-0.000916,0.204023
314.784297,-0.163707,0.223723,-0.191806
314.889081,0.024739,0.094223,0.008399
314.993864,0.146451,0.202190,-0.145382
315.098648,-0.005498,0.210742,-0.652690
315.203430,-0.009010,0.046119,-0.431411
315.308214,-0.116825,-0.350321,0.356429
315.412996,0.046883,-0.466840,0.686592
315.517780,0.211353,-0.120337,0.307867
315.622563,-0.367730,0.208757,-0.028863
315.727347,0.399341,0.101248,0.019700
315.832129,-0.172870,0.347878,-0.241590
315.936913,0.117741,0.151490,-0.291374
316.041695,-0.068873,0.176077,-0.247699
316.146479,-0.189668,-0.021227,-0.091780
316.251262,0.411864,0.063375,-0.147978
316.356046,-0.145534,0.039094,-0.334744
316.460828,-0.136524,-0.064750,-0.278394
316.565612,0.075134,-0.356735,0.011606
316.670394,-0.174244,-0.285571,0.269842
316.775178,0.162180,-0.302980,0.358720
316.879960,-0.089795,-0.025961,0.294734
316.984744,-0.055893,0.030848,0.360553
317.089527,0.266329,0.177451,-0.280990
317.194311,-0.133470,0.305118,-0.244033
317.299093,-0.112854,0.037567,0.186156
317.403877,0.220516,0.111938,-0.028710
317.508659,0.044897,0.073913,-0.274270
317.613443,-0.127514,0.041996,-0.362385
317.718226,0.040163,0.041232,-0.238230
317.823010,-0.069331,-0.238536,0.150879
317.927792,0.072538,-0.221890,0.243117
318.032576,-0.068568,-0.051617,0.198983
318.137358,0.282670,-0.119268,0.123544
318.242142,-0.087962,0.096972,-0.095903
318.346924,-0.152559,0.022754,0.013133
318.451708,-0.047188,-0.034818,0.287556
318.556491,0.221738,0.130110,0.119879
318.661275,-0.134845,0.182796,-0.298399
318.766057,0.010690,0.232733,-0.493412
318.870841,-0.058947,-0.056503,-0.179131
318.975623,0.087046,-0.149963,0.073607
319.080407,-0.135150,-0.298857,0.277630
319.185189,0.082617,-0.122933,0.446987
319.289973,0.161722,0.084144,-0.056503
319.394756,-0.231664,0.155002,-0.311227
319.499539,0.279615,0.159889,-0.211506
319.604322,-0.114839,-0.089184,0.065972
319.709106,0.088420,-0.081243,0.196235
319.813888,-0.036651,0.028557,-0.086893
319.918672,0.078188,-0.040927,-0.014966
320.023454,-0.229068,-0.200969,0.229526
320.128238,-0.041232,-0.071011,0.283891
320.233020,0.150116,-0.046119,0.130569
320.337804,-0.111174,0.103997,0.044745
320.442587,0.194555,0.219447,-0.231358
320.547371,-0.113159,0.167219,-0.367730
320.652153,-0.027488,-0.048868,-0.056351
320.756937,0.123697,-0.172564,0.324971
320.861719,-0.151337,0.085519,0.152712
320.966503,0.054671,0.154086,-0.325734
