Time (s),Linear Acceleration x (m/s^2),Linear Acceleration y (m/s^2),Linear Acceleration z (m/s^2)
0.106199,-0.000491,0.002198,0.050759
0.210985,-0.002773,0.002019,0.041781
0.315772,-0.061233,0.091463,0.071170
0.420557,0.187318,-0.027252,0.079295
0.525344,-0.205808,-0.150700,0.019067
0.630129,0.150916,-0.035429,0.023469
0.734916,0.198577,-0.105786,0.187398
0.839702,-0.479834,0.140853,0.045831
0.944489,-0.242955,0.735612,-0.052375
1.049274,0.560789,1.487521,0.033417
1.154061,-0.392927,1.114937,0.191612
1.258847,-0.219344,1.097455,-0.024630
1.363634,0.128819,0.737629,0.009697
1.468419,-0.887852,0.578607,-0.152438
1.573206,-0.005710,0.672610,0.228299
1.677991,1.176148,0.451436,-0.333054
1.782778,-1.614845,0.050056,0.567223
1.887564,-0.636066,-0.969464,0.260457
1.992351,-1.492680,0.049547,-0.470870
2.097136,1.402561,0.626159,0.391980
2.201923,2.253274,0.461072,-0.173755
2.306709,0.155753,0.165392,-0.164400
2.411496,-0.871158,0.537408,0.115472
2.516281,1.951214,-0.483476,0.499559
2.621068,-0.459488,-0.202304,-0.617122
2.725854,-1.285955,-1.166975,0.753348
2.830641,2.548956,-0.180473,0.373282
2.935426,-0.234355,-0.688747,-0.667350
3.040213,-2.072196,-1.398974,0.212935
3.144999,2.017002,0.082361,-0.018902
3.249786,3.940557,0.127815,0.481632
3.354571,-0.526653,-0.120977,-0.436309
3.459358,-0.695038,0.215061,-0.395568
3.564144,-0.920884,-0.495539,0.701686
3.668931,-0.829801,-0.372504,0.193831
3.773716,0.221293,0.289918,0.297010
3.878504,0.176070,0.447148,-0.455717
3.983289,-0.346003,0.157495,-0.360820
4.088076,-1.063814,1.047417,-1.193329
4.192862,-1.649464,0.020871,0.688097
4.297649,0.589220,-1.730207,1.760438
4.402434,0.397433,0.582061,-1.712892
4.507221,1.893561,-1.180929,0.727008
4.612007,-0.459771,-0.660435,-0.191158
4.716794,-3.658069,-1.294825,0.798150
4.821579,0.111776,-0.407486,-0.363530
4.926367,1.947230,0.307593,0.220543
5.031152,0.793819,0.579799,-0.648285
5.135939,-0.480626,-0.427824,0.500194
5.240725,-0.752853,-0.382669,-0.131033
5.345512,1.996485,-0.118701,1.009338
5.450298,-1.111453,0.321900,-1.280011
5.555085,-2.554004,-0.710629,-0.233802
5.659870,-0.076322,0.448168,-1.016337
5.764658,0.067698,-0.803216,-0.151264
5.869443,0.333981,-0.406285,1.261154
5.974230,0.731256,-1.765825,1.913412
6.079016,0.793006,0.995930,-1.423682
6.183803,2.081847,-0.918861,2.487104
6.288589,0.987253,0.087935,-1.578888
6.393376,-2.169065,2.034590,-2.420155
6.498162,1.343261,-0.741172,0.132830
6.602949,2.440202,0.603083,1.472132
6.707734,0.500105,-0.836779,0.654361
6.812522,-0.541551,-1.318519,-0.086598
6.917307,-0.978697,-0.691451,-0.171324
7.022094,-0.917857,0.792878,-1.502326
7.126880,-0.693233,-0.962272,0.390717
7.231667,-0.514430,-0.276197,0.953158
7.336453,2.510663,-0.001381,0.539245
7.441240,1.670244,1.055524,-1.057670
7.546026,-0.019418,-0.742860,-0.220066
7.650813,-2.327931,-1.024994,0.541448
7.755599,-0.195078,0.631465,-0.998120
7.860386,-0.415323,-1.626050,2.737628
7.965172,2.250935,1.263146,-2.385262
8.069959,0.130107,-1.612004,1.870865
8.174744,-1.262732,0.691349,-0.661766
8.279532,0.963287,0.267134,-0.674875
8.384317,1.184343,0.279153,-0.623860
8.462607,0.065147,-1.266023,0.667724
8.482567,1.550138,0.072725,0.060118
8.582567,-1.098498,-1.177726,-1.976381
8.682567,0.862569,-0.941865,2.808539
8.782567,3.885346,-3.453856,3.593544
8.882567,0.244026,-5.245457,8.278534
8.982567,0.930826,-8.352948,16.112616
9.082567,-3.426403,1.889022,-3.498134
9.182567,-4.116670,6.365820,-11.504857
9.282567,-2.274941,5.817199,-10.485841
9.382567,-0.626946,-4.061962,6.081514
9.482567,-0.626946,-4.061962,6.081514
9.582567,-0.626946,-4.061962,6.081514
9.682567,-0.626946,-4.061962,6.081514
9.782567,-0.626946,-4.061962,6.081514
9.882567,-0.626946,-4.061962,6.081514
9.982567,2.787407,0.272116,0.041235
10.082567,-0.617534,-0.148550,0.022424
10.182567,-0.518532,-0.795505,0.937852
10.282567,-0.294275,-1.173706,0.885303
10.382567,-0.720759,0.608444,-0.231906
10.482567,0.492476,0.007170,-1.162372
10.582567,0.388436,-0.459066,-0.452258
10.682567,0.781591,0.056093,0.267342
10.782567,0.574483,-0.364265,-0.766320
10.882567,0.574483,-0.364265,-0.766320
10.982567,0.574483,-0.364265,-0.766320
11.082567,0.574483,-0.364265,-0.766320
11.182567,0.574483,-0.364265,-0.766320
11.282567,0.574483,-0.364265,-0.766320
11.382567,0.574483,-0.364265,-0.766320
11.482567,0.574483,-0.364265,-0.766320
11.582567,0.574483,-0.364265,-0.766320
11.682567,0.574483,-0.364265,-0.766320
11.782567,0.574483,-0.364265,-0.766320
11.882567,0.574483,-0.364265,-0.766320
11.982567,0.574483,-0.364265,-0.766320
12.082567,0.574483,-0.364265,-0.766320
12.182567,1.138800,0.005034,-0.331741
12.282567,-0.058671,0.270561,-1.579861
12.382567,-0.192703,-1.114405,0.880584
12.482567,-0.122419,-0.195550,0.433195
12.582567,0.919954,-1.323502,1.196158
12.682567,-0.266061,0.586377,-1.300050
12.782567,1.307867,-0.394690,-0.013362
12.882567,1.307867,-0.394690,-0.013362
12.982567,-0.916890,-1.193156,-0.329382
13.082567,-0.916890,-1.193156,-0.329382
13.182567,-0.916890,-1.193156,-0.329382
13.282567,-0.916890,-1.193156,-0.329382
13.382567,-0.916890,-1.193156,-0.329382
13.482567,-0.916890,-1.193156,-0.329382
13.582567,-0.916890,-1.193156,-0.329382
13.682567,-0.916890,-1.193156,-0.329382
13.782567,-0.916890,-1.193156,-0.329382
13.882567,-0.916890,-1.193156,-0.329382
13.982567,-0.916890,-1.193156,-0.329382
14.082567,-0.916890,-1.193156,-0.329382
14.182567,-0.916890,-1.193156,-0.329382
14.282567,-0.916890,-1.193156,-0.329382
14.382567,0.920880,0.226955,0.012681
14.482567,0.241199,0.803980,-0.181648
14.582567,-1.058104,1.042851,-0.086971
14.682567,-0.418992,0.512497,0.243016
14.782567,0.124947,0.223475,-0.047943
14.882567,0.229120,0.208035,0.109876
14.982567,0.546633,0.455712,-0.073383
15.082567,0.125724,0.249880,0.328702
15.182567,0.125724,0.249880,0.328702
15.282567,0.125724,0.249880,0.328702
15.382567,0.125724,0.249880,0.328702
15.482567,0.125724,0.249880,0.328702
15.582567,0.125724,0.249880,0.328702
15.682567,0.125724,0.249880,0.328702
15.782567,0.125724,0.249880,0.328702
15.882567,0.125724,0.249880,0.328702
15.982567,0.125724,0.249880,0.328702
16.082567,0.125724,0.249880,0.328702
16.182567,0.125724,0.249880,0.328702
16.282567,0.125724,0.249880,0.328702
16.382567,0.125724,0.249880,0.328702
16.482567,0.262635,0.143261,0.079345
16.582567,-0.006358,0.084393,0.062824
16.682567,-0.029200,0.042702,0.039728
16.782567,0.205703,0.153785,0.076620
16.882567,-0.017174,0.071696,0.051193
16.982567,0.030996,0.032466,0.063654
17.082567,0.016161,0.043325,0.051389
17.182567,0.051566,0.089397,0.046883
17.282567,-0.139108,-0.176991,0.013210
17.382567,0.079470,-0.388675,0.178053
17.482567,0.079470,-0.388675,0.178053
17.582567,0.079470,-0.388675,0.178053
17.682567,0.079470,-0.388675,0.178053
17.782567,0.079470,-0.388675,0.178053
17.882567,0.079470,-0.388675,0.178053
17.982567,0.079470,-0.388675,0.178053
18.082567,0.079470,-0.388675,0.178053
18.182567,0.079470,-0.388675,0.178053
18.282567,0.079470,-0.388675,0.178053
18.382567,0.079470,-0.388675,0.178053
18.482567,0.079470,-0.388675,0.178053
18.582567,-2.711417,-0.343001,-0.233800
18.682567,0.892073,0.510536,-0.088548
18.782567,1.493725,1.492642,-0.539071
18.882567,-1.793751,-0.416698,0.897283
18.982567,-2.745374,1.034678,-1.255275
19.082567,1.808079,0.095047,0.958087
19.182567,1.654090,0.575582,0.215561
19.282567,-1.384447,0.426731,0.130530
19.382567,-1.384447,0.426731,0.130530
19.482567,-1.384447,0.426731,0.130530
19.582567,-1.384447,0.426731,0.130530
19.682567,-1.384447,0.426731,0.130530
19.782567,-1.384447,0.426731,0.130530
19.882567,-1.384447,0.426731,0.130530
19.982567,-1.384447,0.426731,0.130530
20.082567,-1.384447,0.426731,0.130530
20.182567,-1.384447,0.426731,0.130530
20.282567,-1.384447,0.426731,0.130530
20.382567,-1.384447,0.426731,0.130530
20.482567,-1.384447,0.426731,0.130530
20.582567,-1.384447,0.426731,0.130530
20.682567,-0.428772,-0.955558,1.179941
20.782567,-1.175753,0.086195,-0.140675
20.882567,-1.779690,-0.158106,0.106212
20.982567,0.074482,-0.070707,-0.265924
21.082567,0.271121,-0.608149,0.427462
21.182567,-0.623278,-2.066126,1.689292
21.282567,0.486267,0.004290,-0.323649
21.382567,0.698956,-0.617549,-1.209834
21.482567,-0.270710,-0.130655,-0.834779
21.582567,0.155070,-0.915398,1.041373
21.682567,-2.377587,-1.351279,0.170831
21.782567,-2.377587,-1.351279,0.170831
21.882567,-2.377587,-1.351279,0.170831
21.982567,-2.377587,-1.351279,0.170831
22.082567,-2.377587,-1.351279,0.170831
22.182567,-2.377587,-1.351279,0.170831
22.282567,-2.377587,-1.351279,0.170831
22.382567,-2.377587,-1.351279,0.170831
22.482567,-2.377587,-1.351279,0.170831
22.582567,-2.377587,-1.351279,0.170831
22.682567,-2.377587,-1.351279,0.170831
22.782567,-2.377587,-1.351279,0.170831
22.882567,-1.954204,0.758549,-0.428965
22.982567,-1.126951,0.254280,-0.915861
23.082567,1.304969,-0.146000,1.422006
23.182567,0.919984,0.188971,-0.578327
23.282567,0.154825,-0.571049,0.321270
23.382567,-1.871221,-0.104358,0.210709
23.482567,1.802169,-0.551192,-0.265855
23.582567,0.862089,-0.109843,-0.481460
23.682567,1.488581,0.193640,-0.219843
23.782567,0.162968,-0.881517,1.408810
23.882567,0.162968,-0.881517,1.408810
23.982567,0.162968,-0.881517,1.408810
24.082567,0.162968,-0.881517,1.408810
24.182567,0.162968,-0.881517,1.408810
24.282567,0.162968,-0.881517,1.408810
24.382567,0.162968,-0.881517,1.408810
24.482567,0.162968,-0.881517,1.408810
24.582567,0.162968,-0.881517,1.408810
24.682567,0.162968,-0.881517,1.408810
24.782567,0.162968,-0.881517,1.408810
24.882567,0.162968,-0.881517,1.408810
24.982567,1.095623,0.736574,-0.353700
25.082567,0.562748,0.819265,-1.230109
25.182567,-0.433452,-1.777325,1.221383
25.282567,0.551311,0.313062,0.002645
25.382567,1.079067,-0.945329,0.686163
25.482567,2.154847,-0.877005,-0.146776
25.582567,0.293505,0.427668,0.174167
25.682567,-0.749998,-0.793505,0.312857
25.782567,-0.813068,-0.697417,0.177500
25.882567,-0.556428,-0.441524,-0.316516
25.982567,0.219732,-0.202019,0.821656
26.082567,0.219732,-0.202019,0.821656
26.182567,0.219732,-0.202019,0.821656
26.282567,0.219732,-0.202019,0.821656
26.382567,0.219732,-0.202019,0.821656
26.482567,0.219732,-0.202019,0.821656
26.582567,0.219732,-0.202019,0.821656
26.682567,0.219732,-0.202019,0.821656
26.782567,0.219732,-0.202019,0.821656
26.882567,0.219732,-0.202019,0.821656
26.982567,0.219732,-0.202019,0.821656
27.082567,0.219732,-0.202019,0.821656
27.182567,-0.955763,-0.784329,-0.031132
27.282567,0.464106,0.199243,0.167579
27.382567,0.450067,0.090679,-0.209761
27.482567,-0.828949,-0.739987,-0.044772
27.582567,-1.081475,-1.220724,0.404080
27.682567,0.834285,-0.212157,-0.088653
27.782567,0.382753,0.620199,-0.719467
27.882567,1.437319,-0.509696,0.254408
27.982567,-0.795105,0.207663,0.177956
28.082567,-1.205732,0.363224,-1.289701
28.182567,-1.205732,0.363224,-1.289701
28.282567,-1.205732,0.363224,-1.289701
28.382567,-1.205732,0.363224,-1.289701
28.482567,-1.205732,0.363224,-1.289701
28.582567,-1.205732,0.363224,-1.289701
28.682567,-1.205732,0.363224,-1.289701
28.782567,-1.205732,0.363224,-1.289701
28.882567,-1.205732,0.363224,-1.289701
28.982567,-1.205732,0.363224,-1.289701
29.082567,-1.205732,0.363224,-1.289701
29.182567,-1.205732,0.363224,-1.289701
29.282567,-1.205732,0.363224,-1.289701
29.382567,-1.587171,-0.312736,0.173151
29.482567,-0.995998,-0.937575,0.232379
29.582567,-0.458834,0.248465,0.014966
29.682567,0.345041,-0.172959,-0.274430
29.782567,0.932878,-0.173749,0.165614
29.882567,0.120068,-0.461335,0.519865
29.982567,-0.670643,-0.887758,-0.097048
30.082567,0.585222,0.271587,0.030507
30.182567,1.285830,0.089225,-0.585870
30.282567,1.285830,0.089225,-0.585870
30.382567,1.285830,0.089225,-0.585870
30.482567,1.285830,0.089225,-0.585870
30.582567,1.285830,0.089225,-0.585870
30.682567,1.285830,0.089225,-0.585870
30.782567,1.285830,0.089225,-0.585870
30.882567,1.285830,0.089225,-0.585870
30.982567,1.285830,0.089225,-0.585870
31.082567,1.285830,0.089225,-0.585870
31.182567,1.285830,0.089225,-0.585870
31.282567,1.285830,0.089225,-0.585870
31.382567,1.285830,0.089225,-0.585870
31.482567,1.285830,0.089225,-0.585870
31.582567,1.895339,-0.386883,0.211681
31.682567,-0.020659,-0.031065,-0.084239
31.782567,2.050551,0.178461,0.521939
31.882567,2.791898,-0.038888,0.400612
31.982567,1.198984,-0.149249,1.063963
32.082567,0.002910,-0.545601,-0.308211
32.182567,3.061628,0.776627,-0.391110
32.282567,2.802069,-0.539671,1.787963
32.382567,1.743255,-0.339634,0.614886
32.482567,1.743255,-0.339634,0.614886
32.582567,1.743255,-0.339634,0.614886
32.682567,1.743255,-0.339634,0.614886
32.782567,1.743255,-0.339634,0.614886
32.882567,1.743255,-0.339634,0.614886
32.982567,1.743255,-0.339634,0.614886
33.082567,1.743255,-0.339634,0.614886
33.182567,1.743255,-0.339634,0.614886
33.282567,1.743255,-0.339634,0.614886
33.382567,0.664271,1.308068,-1.857254
33.482567,2.801045,-1.222845,0.020544
33.582567,-6.222593,-5.309798,2.372785
33.682567,-0.006422,-6.490916,9.909502
33.782567,4.970559,2.984073,-4.502379
33.882567,1.338959,2.771626,-0.970228
33.982567,-0.656051,6.738577,-6.081481
34.082567,-2.693699,-1.690602,1.793328
34.182567,-0.708301,-3.828782,3.947294
34.282567,0.861417,-3.931301,2.831116
34.382567,-2.769226,-4.644903,2.039658
34.482567,-0.918202,4.885139,-5.363293
34.582567,1.145978,-2.681851,5.328359
34.682567,0.363472,-1.397819,0.423604
34.782567,0.027047,-0.059174,0.463536
34.882567,0.416499,-1.615394,1.300474
34.982567,-1.036562,0.737151,-1.563418
35.082567,-1.230211,-1.173629,0.844558
35.182567,0.832525,-0.969063,-0.952076
35.282567,-0.114525,0.079338,-0.240185
35.382567,-0.897722,-1.271789,1.319264
35.482567,-0.897722,-1.271789,1.319264
35.582567,-0.897722,-1.271789,1.319264
35.682567,-0.897722,-1.271789,1.319264
35.782567,-0.897722,-1.271789,1.319264
35.882567,-0.897722,-1.271789,1.319264
35.982567,-0.897722,-1.271789,1.319264
36.082567,-0.897722,-1.271789,1.319264
36.182567,-0.897722,-1.271789,1.319264
36.282567,-0.897722,-1.271789,1.319264
36.382567,-0.897722,-1.271789,1.319264
36.482567,-0.897722,-1.271789,1.319264
36.582567,-0.897722,-1.271789,1.319264
36.682567,-0.656824,1.194213,-2.036404
36.782567,-1.426603,-3.593726,2.757016
36.882567,0.547172,2.260993,-3.178158
36.982567,-1.717519,-1.723210,0.349402
37.082567,-1.868400,2.026468,-3.081511
37.182567,0.813997,-3.525034,4.520295
37.282567,0.781599,-0.383851,-0.668966
37.382567,1.045189,0.164945,-1.085874
37.482567,-0.143849,0.316594,-0.873032
37.582567,-0.143849,0.316594,-0.873032
37.682567,-0.143849,0.316594,-0.873032
37.782567,-0.143849,0.316594,-0.873032
37.882567,-0.143849,0.316594,-0.873032
37.982567,-0.143849,0.316594,-0.873032
38.082567,-0.143849,0.316594,-0.873032
38.182567,-0.143849,0.316594,-0.873032
38.282567,-0.143849,0.316594,-0.873032
38.382567,0.915487,-0.053636,0.466209
38.482567,-0.435767,5.709550,-4.629210
38.582567,0.078829,2.219293,-1.290399
38.682567,-1.427635,3.095955,-3.503659
38.782567,-1.001048,-3.044378,1.616329
38.882567,-2.120276,-6.268275,4.567168
38.982567,-0.785478,2.283837,-8.552011
39.082567,0.638794,4.091412,-6.903195
39.182567,2.522070,2.643188,-2.528636
39.282567,-3.853031,-1.087999,2.102722
39.382567,-1.465153,-0.396013,-2.961259
39.482567,-1.465153,-0.396013,-2.961259
39.582567,-1.465153,-0.396013,-2.961259
39.682567,-1.465153,-0.396013,-2.961259
39.782567,-0.062989,-1.646524,0.668349
39.882567,-0.653154,0.031644,-0.637782
39.982567,-0.741072,0.575956,-1.950025
40.082567,-0.124716,-0.852712,1.604626
40.182567,1.679063,-0.279650,-0.331380
40.282567,0.599796,-2.087871,1.705560
40.382567,-1.488791,0.123691,-1.073235
40.482567,0.297805,-0.116289,-1.544202
40.582567,0.297805,-0.116289,-1.544202
40.682567,0.387855,-1.540578,1.812037
40.782567,0.387855,-1.540578,1.812037
40.882567,0.387855,-1.540578,1.812037
40.982567,0.387855,-1.540578,1.812037
41.082567,0.387855,-1.540578,1.812037
41.182567,0.387855,-1.540578,1.812037
41.282567,0.387855,-1.540578,1.812037
41.382567,0.387855,-1.540578,1.812037
41.482567,0.387855,-1.540578,1.812037
41.582567,0.387855,-1.540578,1.812037
41.682567,0.387855,-1.540578,1.812037
41.782567,0.387855,-1.540578,1.812037
41.882567,0.024968,-2.581241,1.186811
41.982567,-1.709041,0.025225,0.341702
42.082567,-0.168176,-0.936321,-0.668054
42.182567,-0.169053,-0.078173,-0.911541
42.282567,-0.860533,-0.820294,1.436493
42.382567,0.659122,-0.618938,0.188751
42.482567,-1.010387,0.569224,-0.807594
42.582567,1.424106,-1.980450,1.037071
42.682567,-1.146765,0.723202,-2.248911
42.782567,-1.091308,-1.819760,0.317895
42.882567,-1.091308,-1.819760,0.317895
42.982567,-1.091308,-1.819760,0.317895
43.082567,-1.091308,-1.819760,0.317895
43.182567,-1.091308,-1.819760,0.317895
43.282567,-1.091308,-1.819760,0.317895
43.382567,-1.091308,-1.819760,0.317895
43.482567,-1.091308,-1.819760,0.317895
43.582567,-1.091308,-1.819760,0.317895
43.682567,-1.091308,-1.819760,0.317895
43.782567,-1.091308,-1.819760,0.317895
43.882567,-1.091308,-1.819760,0.317895
43.982567,-1.091308,-1.819760,0.317895
44.082567,-1.059944,-0.207735,-0.122224
44.182567,0.298229,0.912885,-0.752949
44.282567,0.898045,0.517682,0.352109
44.382567,-0.664522,-1.143702,0.189232
44.482567,-1.029706,-0.963119,0.736576
44.582567,0.152144,-0.708310,0.545906
44.682567,0.301155,0.757829,-0.613705
44.782567,-1.136999,-1.942801,1.410947
44.882567,0.120419,1.283435,-1.150809
44.982567,-0.115351,1.302169,-1.118247
45.082567,-0.115351,1.302169,-1.118247
45.182567,-0.115351,1.302169,-1.118247
45.282567,-0.115351,1.302169,-1.118247
45.382567,-0.115351,1.302169,-1.118247
45.482567,-0.115351,1.302169,-1.118247
45.582567,-0.115351,1.302169,-1.118247
45.682567,-0.115351,1.302169,-1.118247
45.782567,-0.115351,1.302169,-1.118247
45.882567,-0.115351,1.302169,-1.118247
45.982567,-0.115351,1.302169,-1.118247
46.082567,-0.115351,1.302169,-1.118247
46.182567,-0.115351,1.302169,-1.118247
46.282567,-0.096718,-0.754498,0.852165
46.382567,0.371783,-0.613303,0.760239
46.482567,-0.263738,0.040673,-0.096050
46.582567,-0.486277,0.396667,-0.240640
46.682567,-1.001729,-0.878062,0.625067
46.782567,-0.147543,-1.050559,1.095525
46.882567,1.861800,0.329552,-0.535127
46.982567,1.861800,0.329552,-0.535127
47.082567,-1.786050,-1.533838,-0.463831
47.182567,-1.786050,-1.533838,-0.463831
47.282567,-1.786050,-1.533838,-0.463831
47.382567,-1.786050,-1.533838,-0.463831
47.482567,-1.786050,-1.533838,-0.463831
47.582567,-1.786050,-1.533838,-0.463831
47.682567,-1.786050,-1.533838,-0.463831
47.782567,-1.786050,-1.533838,-0.463831
47.882567,-1.786050,-1.533838,-0.463831
47.982567,-1.786050,-1.533838,-0.463831
48.082567,-1.786050,-1.533838,-0.463831
48.182567,-1.786050,-1.533838,-0.463831
48.282567,-1.786050,-1.533838,-0.463831
48.382567,1.636696,0.032163,-1.343043
48.482567,0.946153,-1.756534,2.171751
48.582567,0.091996,-0.316507,0.411898
48.682567,-0.797858,0.075555,-0.127302
48.782567,-0.096478,-1.113431,0.250352
48.882567,0.798557,1.003052,-0.387962
48.982567,0.600335,0.856696,-1.159982
49.082567,-0.477409,-0.902357,-0.343004
49.182567,-1.165181,0.674258,-0.641302
49.282567,-1.180754,-1.277034,1.254633
49.382567,-1.180754,-1.277034,1.254633
49.482567,-1.180754,-1.277034,1.254633
49.582567,-1.180754,-1.277034,1.254633
49.682567,-1.180754,-1.277034,1.254633
49.782567,-1.180754,-1.277034,1.254633
49.882567,-1.180754,-1.277034,1.254633
49.982567,-1.180754,-1.277034,1.254633
50.082567,-1.180754,-1.277034,1.254633
50.182567,-1.180754,-1.277034,1.254633
50.282567,-1.180754,-1.277034,1.254633
50.382567,-1.180754,-1.277034,1.254633
50.482567,-0.889763,-0.541497,-0.610165
50.582567,-0.959601,0.884939,0.327670
50.682567,-0.178605,-0.503729,-0.236406
50.782567,1.191424,0.628757,-0.413336
50.882567,-0.519640,-1.406718,1.375072
50.982567,0.358282,0.098398,0.369371
51.082567,-0.053485,0.022743,-0.561453
51.182567,-0.053485,0.022743,-0.561453
51.282567,-0.863325,1.224104,-1.316497
51.382567,-0.863325,1.224104,-1.316497
51.482567,-0.863325,1.224104,-1.316497
51.582567,-0.863325,1.224104,-1.316497
51.682567,-0.863325,1.224104,-1.316497
51.782567,-0.863325,1.224104,-1.316497
51.882567,-0.863325,1.224104,-1.316497
51.982567,-0.863325,1.224104,-1.316497
52.082567,-0.863325,1.224104,-1.316497
52.182567,-0.863325,1.224104,-1.316497
52.282567,-0.863325,1.224104,-1.316497
52.382567,-0.863325,1.224104,-1.316497
52.482567,-0.863325,1.224104,-1.316497
52.582567,-0.863325,1.224104,-1.316497
52.682567,0.574007,-0.662454,-0.057045
52.782567,-0.986031,-0.938017,0.869430
52.882567,-1.310168,0.085817,-0.341017
52.982567,0.590587,0.874001,-0.409522
53.082567,0.824342,-0.075700,-0.051341
53.182567,0.369247,-0.652747,0.585298
53.282567,-0.571746,0.069098,-1.233915
53.382567,-0.393047,0.374646,0.355662
53.482567,-0.393047,0.374646,0.355662
53.582567,-0.166060,2.812612,-1.659763
53.682567,-0.166060,2.812612,-1.659763
53.782567,-0.166060,2.812612,-1.659763
53.882567,-0.166060,2.812612,-1.659763
53.982567,-0.166060,2.812612,-1.659763
54.082567,-0.166060,2.812612,-1.659763
54.182567,-0.166060,2.812612,-1.659763
54.282567,-0.166060,2.812612,-1.659763
54.382567,-0.166060,2.812612,-1.659763
54.482567,-0.166060,2.812612,-1.659763
54.582567,-0.166060,2.812612,-1.659763
54.682567,-0.166060,2.812612,-1.659763
54.782567,-0.166060,2.812612,-1.659763
54.882567,-0.691903,-1.008498,1.048045
54.982567,-1.511266,-0.890376,0.202921
55.082567,0.918890,0.396509,0.537376
55.182567,0.930246,0.967635,-0.878091
55.282567,-0.580532,0.639207,-1.312402
55.382567,0.871613,0.150930,-0.705895
55.482567,-1.836517,-3.456454,3.192423
55.582567,-0.821822,0.929868,-0.718089
55.682567,-0.303754,1.953632,-3.527279
55.782567,0.079068,-2.586892,4.290374
55.882567,1.951022,1.136148,-2.147642
55.982567,1.951022,1.136148,-2.147642
56.082567,1.951022,1.136148,-2.147642
56.182567,1.951022,1.136148,-2.147642
56.282567,1.951022,1.136148,-2.147642
56.382567,1.951022,1.136148,-2.147642
56.482567,1.951022,1.136148,-2.147642
56.582567,1.951022,1.136148,-2.147642
56.682567,1.951022,1.136148,-2.147642
56.782567,1.951022,1.136148,-2.147642
56.882567,1.951022,1.136148,-2.147642
56.982567,1.951022,1.136148,-2.147642
57.082567,0.178180,-2.884272,4.211775
57.182567,0.535196,2.112183,-4.510109
57.282567,0.194399,0.389478,0.334662
57.382567,0.975353,-0.637668,0.114257
57.482567,0.632196,-0.363625,-0.363073
57.582567,-1.493733,0.583433,-0.788526
57.682567,-1.679582,-2.098106,2.340852
57.782567,0.338087,1.366573,-1.295548
57.882567,-0.915578,0.208434,-1.467961
57.982567,0.175990,-1.603083,2.252023
58.082567,0.175990,-1.603083,2.252023
58.182567,0.175990,-1.603083,2.252023
58.282567,0.175990,-1.603083,2.252023
58.382567,0.175990,-1.603083,2.252023
58.482567,0.175990,-1.603083,2.252023
58.582567,0.175990,-1.603083,2.252023
58.682567,0.175990,-1.603083,2.252023
58.782567,0.175990,-1.603083,2.252023
58.882567,0.175990,-1.603083,2.252023
58.982567,0.175990,-1.603083,2.252023
59.082567,0.175990,-1.603083,2.252023
59.182567,0.175990,-1.603083,2.252023
59.282567,-1.474364,1.136209,-1.483237
59.382567,-0.293443,-0.755965,1.111011
59.482567,-0.270500,-0.147323,-0.324314
59.582567,-0.100675,0.501430,-0.631959
59.682567,-1.000247,-0.587064,0.086897
59.782567,0.320256,0.361888,0.181674
59.882567,1.167326,0.481893,0.259661
59.982567,0.293298,-0.862479,0.894074
60.082567,-0.215706,-0.556382,-0.125716
60.182567,-0.215706,-0.556382,-0.125716
60.282567,-0.215706,-0.556382,-0.125716
60.382567,-0.215706,-0.556382,-0.125716
60.482567,-0.215706,-0.556382,-0.125716
60.582567,-0.215706,-0.556382,-0.125716
60.682567,-0.215706,-0.556382,-0.125716
60.782567,-0.215706,-0.556382,-0.125716
60.882567,-0.215706,-0.556382,-0.125716
60.982567,-0.215706,-0.556382,-0.125716
61.082567,-0.215706,-0.556382,-0.125716
61.182567,-0.215706,-0.556382,-0.125716
61.282567,-0.215706,-0.556382,-0.125716
61.382567,-0.215706,-0.556382,-0.125716
61.482567,0.472151,0.014939,-0.836584
61.582567,-1.605097,0.879310,-0.936570
61.682567,-0.487817,-0.880984,1.132236
61.782567,-0.002447,0.141766,0.297396
61.882567,-0.060260,0.586984,-0.250456
61.982567,-1.450341,0.807655,-0.491631
62.082567,0.502930,-1.725696,1.308663
62.182567,-0.867058,0.786104,-0.633517
62.282567,0.566091,-0.621836,0.840940
62.382567,1.443310,0.682858,-0.139181
62.482567,1.443310,0.682858,-0.139181
62.582567,1.443310,0.682858,-0.139181
62.682567,1.443310,0.682858,-0.139181
62.782567,1.443310,0.682858,-0.139181
62.882567,1.443310,0.682858,-0.139181
62.982567,1.443310,0.682858,-0.139181
63.082567,1.443310,0.682858,-0.139181
63.182567,1.443310,0.682858,-0.139181
63.282567,1.443310,0.682858,-0.139181
63.382567,1.443310,0.682858,-0.139181
63.482567,1.443310,0.682858,-0.139181
63.582567,1.443310,0.682858,-0.139181
63.682567,1.463461,-1.389328,2.721347
63.782567,-0.773270,0.250887,-0.600859
63.882567,-0.099624,2.295839,-2.902296
63.982567,-0.161369,-1.720471,1.525685
64.082567,0.277890,0.886268,-0.734685
64.182567,-2.004510,-1.035076,0.915682
64.282567,0.756816,0.492694,-0.481275
64.382567,1.675736,0.575160,-0.291798
64.482567,0.038191,-2.960636,2.831816
64.582567,0.038191,-2.960636,2.831816
64.682567,0.038191,-2.960636,2.831816
64.782567,0.038191,-2.960636,2.831816
64.882567,0.038191,-2.960636,2.831816
64.982567,0.038191,-2.960636,2.831816
65.082567,0.038191,-2.960636,2.831816
65.182567,0.038191,-2.960636,2.831816
65.282567,0.038191,-2.960636,2.831816
65.382567,0.038191,-2.960636,2.831816
65.482567,0.038191,-2.960636,2.831816
65.582567,0.038191,-2.960636,2.831816
65.682567,0.038191,-2.960636,2.831816
65.782567,0.038191,-2.960636,2.831816
65.882567,0.367901,0.426234,0.537615
65.982567,-0.627295,1.897520,-1.426445
66.082567,0.102752,-0.748023,-0.116919
66.182567,-1.008643,-1.512177,2.172484
66.282567,-1.783116,1.016956,-1.820598
66.382567,0.903008,0.958186,-0.975175
66.482567,-0.771166,-2.429313,3.762525
66.582567,0.904711,0.406210,-1.673403
66.682567,0.440752,2.117166,-1.153814
66.782567,1.398273,-0.692398,-0.206076
66.882567,1.398273,-0.692398,-0.206076
66.982567,1.398273,-0.692398,-0.206076
67.082567,1.398273,-0.692398,-0.206076
67.182567,1.398273,-0.692398,-0.206076
67.282567,1.398273,-0.692398,-0.206076
67.382567,1.398273,-0.692398,-0.206076
67.482567,1.398273,-0.692398,-0.206076
67.582567,1.398273,-0.692398,-0.206076
67.682567,1.398273,-0.692398,-0.206076
67.782567,1.398273,-0.692398,-0.206076
67.882567,1.398273,-0.692398,-0.206076
67.982567,-0.369622,-0.361498,-0.176005
68.082567,1.390507,-1.069195,1.201405
68.182567,-0.049943,1.325871,-0.686167
68.282567,-0.334868,0.110906,-1.299280
68.382567,-1.113917,-0.781916,0.078401
68.482567,-0.672618,-1.560076,1.961200
68.582567,-0.416028,1.028704,-0.716579
68.682567,-0.966410,1.306016,-2.443439
68.782567,-0.966410,1.306016,-2.443439
68.882567,-0.034186,-0.174171,-2.272483
68.982567,-0.034186,-0.174171,-2.272483
69.082567,-0.034186,-0.174171,-2.272483
69.182567,-0.034186,-0.174171,-2.272483
69.282567,-0.034186,-0.174171,-2.272483
69.382567,-0.034186,-0.174171,-2.272483
69.482567,-0.034186,-0.174171,-2.272483
69.582567,-0.034186,-0.174171,-2.272483
69.682567,-0.034186,-0.174171,-2.272483
69.782567,-0.034186,-0.174171,-2.272483
69.882567,-0.034186,-0.174171,-2.272483
69.982567,-0.034186,-0.174171,-2.272483
70.082567,-0.034186,-0.174171,-2.272483
70.182567,1.597184,1.983776,-2.174650
70.282567,0.982327,-1.377231,0.773148
70.382567,-1.028915,-1.499563,1.194410
70.482567,0.110654,1.397602,-2.553137
70.582567,-0.439569,-2.440931,2.472251
70.682567,-0.036829,2.550378,-4.324305
70.782567,1.447469,-1.199477,2.224027
70.882567,-2.953367,1.258158,-1.640688
70.982567,0.147655,0.540091,-0.809133
71.082567,0.147655,0.540091,-0.809133
71.182567,0.147655,0.540091,-0.809133
71.282567,0.147655,0.540091,-0.809133
71.382567,0.147655,0.540091,-0.809133
71.482567,0.147655,0.540091,-0.809133
71.582567,0.147655,0.540091,-0.809133
71.682567,0.147655,0.540091,-0.809133
71.782567,0.147655,0.540091,-0.809133
71.882567,0.147655,0.540091,-0.809133
71.982567,0.147655,0.540091,-0.809133
72.082567,0.147655,0.540091,-0.809133
72.182567,0.147655,0.540091,-0.809133
72.282567,0.147655,0.540091,-0.809133
72.382567,0.226717,1.369540,-1.538541
72.482567,-0.639665,-1.112015,1.581778
72.582567,-2.231321,-0.806245,0.185577
72.682567,1.392133,1.246559,-1.097017
72.782567,0.062022,-0.264403,-0.082448
72.882567,0.247884,-0.799327,1.214172
72.982567,-0.822728,0.172851,0.043217
73.082567,0.201430,0.225109,0.876612
73.182567,1.016647,-0.115246,0.175579
73.282567,0.463227,0.887048,-1.377358
73.382567,0.463227,0.887048,-1.377358
73.482567,0.463227,0.887048,-1.377358
73.582567,0.463227,0.887048,-1.377358
73.682567,0.463227,0.887048,-1.377358
73.782567,0.463227,0.887048,-1.377358
73.882567,0.463227,0.887048,-1.377358
73.982567,0.463227,0.887048,-1.377358
74.082567,0.463227,0.887048,-1.377358
74.182567,0.463227,0.887048,-1.377358
74.282567,0.463227,0.887048,-1.377358
74.382567,0.463227,0.887048,-1.377358
74.482567,0.463227,0.887048,-1.377358
74.582567,-0.063189,1.513845,-1.195912
74.682567,-2.607188,-1.005745,-0.999957
74.782567,-0.552501,0.503524,-0.066958
74.882567,-0.019795,-1.627068,2.327635
74.982567,-2.662225,1.515474,-3.540273
75.082567,-0.414149,-0.495171,1.550868
75.182567,1.880044,-1.670662,2.357846
75.282567,-0.354173,1.534976,-1.674182
75.382567,-0.745833,0.501932,-1.356120
75.482567,-0.745833,0.501932,-1.356120
75.582567,-0.745833,0.501932,-1.356120
75.682567,-0.745833,0.501932,-1.356120
75.782567,-0.745833,0.501932,-1.356120
75.882567,-0.745833,0.501932,-1.356120
75.982567,-0.745833,0.501932,-1.356120
76.082567,-0.745833,0.501932,-1.356120
76.182567,-0.745833,0.501932,-1.356120
76.282567,-0.745833,0.501932,-1.356120
76.382567,-0.745833,0.501932,-1.356120
76.482567,-0.745833,0.501932,-1.356120
76.582567,-0.745833,0.501932,-1.356120
76.682567,-0.745833,0.501932,-1.356120
76.782567,0.696579,1.225102,-1.440387
76.882567,-0.380299,-0.038545,-0.870507
76.982567,0.729377,-0.896213,1.730089
77.082567,-1.458743,0.325989,-0.779775
77.182567,-0.117944,-0.478710,1.610045
77.282567,-0.201681,1.405835,-3.338848
77.382567,0.379969,-1.272026,1.827590
77.482567,-0.004811,0.039523,0.144231
77.582567,0.714252,-2.035484,1.653836
77.682567,0.714252,-2.035484,1.653836
77.782567,0.714252,-2.035484,1.653836
77.882567,0.714252,-2.035484,1.653836
77.982567,0.714252,-2.035484,1.653836
78.082567,0.714252,-2.035484,1.653836
78.182567,0.714252,-2.035484,1.653836
78.282567,0.714252,-2.035484,1.653836
78.382567,0.714252,-2.035484,1.653836
78.482567,0.714252,-2.035484,1.653836
78.582567,0.714252,-2.035484,1.653836
78.682567,0.714252,-2.035484,1.653836
78.782567,0.714252,-2.035484,1.653836
78.882567,0.714252,-2.035484,1.653836
78.982567,0.264069,-1.137743,0.767212
79.082567,-1.332608,-0.795406,-0.397674
79.182567,0.176015,-0.159420,0.460027
79.282567,0.459221,1.087537,-1.098817
79.382567,0.976642,0.214777,-0.275338
79.482567,-1.666211,-1.534307,1.166645
79.582567,0.071137,0.221258,0.101901
79.682567,0.102132,0.245867,-0.746044
79.782567,-0.086962,-0.399400,-0.267649
79.882567,-0.086962,-0.399400,-0.267649
79.982567,-0.086962,-0.399400,-0.267649
80.082567,-0.086962,-0.399400,-0.267649
80.182567,-0.086962,-0.399400,-0.267649
80.282567,-0.086962,-0.399400,-0.267649
80.382567,0.009127,-0.495897,0.669843
80.482567,1.172814,-2.049137,1.840463
80.582567,-3.349025,6.983205,-8.387790
80.682567,-4.222957,-7.390036,9.472504
80.782567,0.374187,-3.000767,5.964517
80.882567,-0.033705,5.435198,-5.230422
80.982567,0.177073,7.248941,-7.872458
81.082567,-3.705195,-7.823221,7.518395
81.182567,3.068416,-1.541541,3.103516
81.282567,0.426725,7.663314,-9.153982
81.382567,1.259928,-8.565516,13.488928
81.482567,-1.210241,-1.391524,1.313492
81.582567,1.112499,1.224091,-3.105603
81.682567,-0.320725,5.107653,-7.561677
81.782567,-2.633852,1.206667,-0.428351
81.882567,0.359944,-10.220137,11.218823
81.982567,-1.814029,-1.867865,0.435127
82.082567,-2.432043,-0.166812,1.576154
82.182567,-1.995589,4.336910,-4.755240
82.282567,-1.523721,-4.788401,6.713273
82.382567,-1.523721,-4.788401,6.713273
82.482567,-1.523721,-4.788401,6.713273
82.582567,-1.523721,-4.788401,6.713273
82.682567,-1.523721,-4.788401,6.713273
82.782567,-1.523721,-4.788401,6.713273
82.882567,-1.523721,-4.788401,6.713273
82.982567,-1.523721,-4.788401,6.713273
83.082567,-1.523721,-4.788401,6.713273
83.182567,-1.523721,-4.788401,6.713273
83.282567,-1.523721,-4.788401,6.713273
83.382567,-1.523721,-4.788401,6.713273
83.482567,0.244747,-1.916446,1.021464
83.582567,0.657632,-0.686996,0.950231
83.682567,0.631707,0.599098,-0.841122
83.782567,0.551967,-0.914092,-0.724400
83.882567,0.004551,-1.777749,1.331039
83.982567,0.584965,0.334926,-0.839201
84.082567,-1.820356,0.661109,-1.529279
84.182567,0.234242,-1.694617,1.616475
84.282567,1.099808,-1.675754,1.333831
84.382567,-0.158937,1.546001,-2.149710
84.482567,-1.720441,-5.418611,2.578998
84.582567,3.386254,-1.587084,2.361697
84.682567,-1.308470,-3.986663,6.306056
84.782567,-2.040855,-0.145843,0.297005
84.882567,3.521734,-6.465386,7.315820
84.982567,1.325459,10.390449,-15.258925
85.082567,-0.387701,-0.204291,0.289872
85.182567,-1.126621,-5.033108,2.669729
85.282567,-2.377973,8.872373,-7.510484
85.382567,4.073164,-1.243235,5.251084
85.482567,4.073164,-1.243235,5.251084
85.582567,4.073164,-1.243235,5.251084
85.682567,4.073164,-1.243235,5.251084
85.782567,4.073164,-1.243235,5.251084
85.882567,0.765050,0.223946,1.949448
85.982567,0.144779,-0.534701,-2.650139
86.082567,-2.054698,-0.369511,0.277311
86.182567,-2.426590,-0.516048,-0.112001
86.282567,3.261616,-0.677725,-1.002644
86.382567,-0.276759,-1.715142,1.944944
86.482567,0.483997,1.474190,-2.360311
86.582567,0.660321,0.001737,0.684306
86.682567,0.850142,-3.069528,3.574604
86.782567,0.850142,-3.069528,3.574604
86.882567,0.850142,-3.069528,3.574604
86.982567,0.850142,-3.069528,3.574604
87.082567,0.850142,-3.069528,3.574604
87.182567,0.850142,-3.069528,3.574604
87.282567,0.850142,-3.069528,3.574604
87.382567,0.850142,-3.069528,3.574604
87.482567,0.850142,-3.069528,3.574604
87.582567,0.850142,-3.069528,3.574604
87.682567,0.850142,-3.069528,3.574604
87.782567,0.850142,-3.069528,3.574604
87.882567,0.850142,-3.069528,3.574604
87.982567,0.850142,-3.069528,3.574604
88.082567,-0.438107,1.061105,-1.899863
88.182567,0.151618,-1.218504,-0.706667
88.282567,-1.367550,-0.859898,1.939548
88.382567,0.886944,1.165309,-2.559795
88.482567,0.007616,-1.320511,1.321965
88.582567,0.623417,-0.938255,1.628929
88.682567,-1.097497,-0.581356,-1.155407
88.782567,1.019004,-0.296526,-0.985418
88.882567,0.141782,-1.275774,1.348341
88.982567,0.141782,-1.275774,1.348341
89.082567,0.141782,-1.275774,1.348341
89.182567,0.141782,-1.275774,1.348341
89.282567,0.141782,-1.275774,1.348341
89.382567,0.141782,-1.275774,1.348341
89.482567,0.141782,-1.275774,1.348341
89.582567,0.141782,-1.275774,1.348341
89.682567,0.141782,-1.275774,1.348341
89.782567,0.141782,-1.275774,1.348341
89.882567,0.141782,-1.275774,1.348341
89.982567,0.141782,-1.275774,1.348341
90.082567,0.141782,-1.275774,1.348341
90.182567,0.141782,-1.275774,1.348341
90.282567,0.722625,0.832538,-2.271089
90.382567,-0.097135,0.039209,-0.025291
90.482567,0.170462,-1.468158,0.826330
90.582567,0.584592,-0.002824,-0.432112
90.682567,-0.236532,-0.422289,0.155265
90.782567,-0.420015,-0.432729,0.113090
90.882567,-0.919463,-0.205265,-0.360461
90.982567,-0.520278,-0.416334,0.071213
91.082567,0.968856,-0.595180,1.751645
91.182567,0.968856,-0.595180,1.751645
91.282567,0.968856,-0.595180,1.751645
91.382567,0.968856,-0.595180,1.751645
91.482567,0.968856,-0.595180,1.751645
91.582567,0.968856,-0.595180,1.751645
91.682567,0.968856,-0.595180,1.751645
91.782567,0.968856,-0.595180,1.751645
91.882567,0.968856,-0.595180,1.751645
91.982567,0.968856,-0.595180,1.751645
92.082567,0.968856,-0.595180,1.751645
92.182567,0.968856,-0.595180,1.751645
92.282567,0.968856,-0.595180,1.751645
92.382567,-1.087569,0.784443,-0.044224
92.482567,-0.306133,1.180472,-2.766067
92.582567,-0.027939,-2.486944,2.344050
92.682567,0.758764,0.118067,0.941187
92.782567,0.464165,2.100796,-3.868044
92.882567,-0.098420,-2.774259,2.639494
92.982567,-1.309541,0.047989,-0.362635
93.082567,0.350827,0.195241,0.286342
93.182567,0.980100,0.687464,-0.888456
93.282567,-0.203764,0.349548,-0.516208
93.382567,1.351121,-3.570778,3.205714
93.482567,1.351121,-3.570778,3.205714
93.582567,1.351121,-3.570778,3.205714
93.682567,1.351121,-3.570778,3.205714
93.782567,1.351121,-3.570778,3.205714
93.882567,1.351121,-3.570778,3.205714
93.982567,1.351121,-3.570778,3.205714
94.082567,1.351121,-3.570778,3.205714
94.182567,1.351121,-3.570778,3.205714
94.282567,1.351121,-3.570778,3.205714
94.382567,1.351121,-3.570778,3.205714
94.482567,1.351121,-3.570778,3.205714
94.582567,0.411409,0.361360,-0.888136
94.682567,-0.739869,-1.287602,2.143219
94.782567,0.417518,0.544469,-0.887233
94.882567,0.693643,1.601818,-3.590168
94.982567,-1.555755,-0.810185,1.006319
95.082567,-0.299521,-3.061044,3.250239
95.182567,1.183781,1.722305,-3.115131
95.282567,0.932994,0.195561,0.403339
95.382567,2.022228,-0.769224,0.269359
95.482567,1.074454,-0.609581,1.019214
95.582567,1.095982,1.062056,-0.990314
95.682567,1.095982,1.062056,-0.990314
95.782567,1.095982,1.062056,-0.990314
95.882567,1.095982,1.062056,-0.990314
95.982567,1.095982,1.062056,-0.990314
96.082567,1.095982,1.062056,-0.990314
96.182567,1.095982,1.062056,-0.990314
96.282567,1.095982,1.062056,-0.990314
96.382567,1.095982,1.062056,-0.990314
96.482567,1.095982,1.062056,-0.990314
96.582567,1.095982,1.062056,-0.990314
96.682567,1.095982,1.062056,-0.990314
96.782567,2.490111,1.853888,-2.642122
96.882567,0.972025,-3.877811,4.193317
96.982567,-0.546169,-2.906427,3.303325
97.082567,-1.266350,3.827457,-8.034151
97.182567,0.304453,-3.272488,2.638042
97.282567,-0.109949,0.726317,-0.708753
97.382567,-0.196864,0.137716,-0.545403
97.482567,-1.954572,0.218156,-1.168832
97.582567,-1.595093,-0.520358,0.734047
97.682567,-1.595093,-0.520358,0.734047
97.782567,-1.595093,-0.520358,0.734047
97.882567,-1.595093,-0.520358,0.734047
97.982567,-1.595093,-0.520358,0.734047
98.082567,-1.595093,-0.520358,0.734047
98.182567,-1.595093,-0.520358,0.734047
98.282567,-1.595093,-0.520358,0.734047
98.382567,-1.595093,-0.520358,0.734047
98.482567,-1.595093,-0.520358,0.734047
98.582567,-1.595093,-0.520358,0.734047
98.682567,-1.595093,-0.520358,0.734047
98.782567,-1.595093,-0.520358,0.734047
98.882567,-1.595093,-0.520358,0.734047
98.982567,-1.052523,0.197305,-0.046306
99.082567,1.405663,-0.039523,0.182876
99.182567,-0.060587,-0.281558,-0.877680
99.282567,0.738156,0.085900,0.241980
99.382567,0.906435,-0.673626,0.006304
99.482567,1.130621,-1.153163,1.498404
99.582567,0.323961,1.456300,-1.569155
99.682567,-2.022115,-1.724267,0.327287
99.782567,-0.684359,1.136133,-0.814562
99.882567,-0.684359,1.136133,-0.814562
99.982567,-0.684359,1.136133,-0.814562
100.082567,-0.684359,1.136133,-0.814562
100.182567,-0.684359,1.136133,-0.814562
100.282567,-0.684359,1.136133,-0.814562
100.382567,-0.684359,1.136133,-0.814562
100.482567,-0.684359,1.136133,-0.814562
100.582567,-0.684359,1.136133,-0.814562
100.682567,-0.684359,1.136133,-0.814562
100.782567,-0.684359,1.136133,-0.814562
100.882567,-0.684359,1.136133,-0.814562
100.982567,-0.684359,1.136133,-0.814562
101.082567,-0.684359,1.136133,-0.814562
101.182567,-1.907007,0.257498,-0.315688
101.282567,-1.744048,-0.029461,-0.246207
101.382567,-1.276531,1.238054,-2.144320
101.482567,-0.899560,-1.857947,2.326577
101.582567,-0.494105,-0.294947,0.347455
101.682567,1.696940,0.586751,-0.784314
101.782567,1.011727,0.127167,-0.563736
101.882567,-0.279392,-0.166805,0.083215
101.982567,-0.279392,-0.166805,0.083215
102.082567,-0.361632,-1.469122,2.121095
102.182567,-0.361632,-1.469122,2.121095
102.282567,-0.361632,-1.469122,2.121095
102.382567,-0.361632,-1.469122,2.121095
102.482567,-0.361632,-1.469122,2.121095
102.582567,-0.361632,-1.469122,2.121095
102.682567,-0.361632,-1.469122,2.121095
102.782567,-0.361632,-1.469122,2.121095
102.882567,-0.361632,-1.469122,2.121095
102.982567,-0.361632,-1.469122,2.121095
103.082567,-0.361632,-1.469122,2.121095
103.182567,-0.361632,-1.469122,2.121095
103.282567,-0.361632,-1.469122,2.121095
103.382567,-0.240919,-1.436818,2.028158
103.482567,1.734054,-0.132343,0.598412
103.582567,-0.761764,-0.010514,0.132307
103.682567,-0.725610,0.966639,-2.297671
103.782567,1.086640,-1.292513,0.749634
103.882567,0.838728,-1.380977,2.557528
103.982567,0.479204,-0.473640,-0.895425
104.082567,-0.437950,0.044694,-0.235052
104.182567,-1.421406,0.784673,-1.747248
104.282567,0.406805,-1.547291,1.044287
104.382567,0.406805,-1.547291,1.044287
104.482567,0.406805,-1.547291,1.044287
104.582567,0.406805,-1.547291,1.044287
104.682567,0.406805,-1.547291,1.044287
104.782567,0.406805,-1.547291,1.044287
104.882567,0.406805,-1.547291,1.044287
104.982567,0.406805,-1.547291,1.044287
105.082567,0.406805,-1.547291,1.044287
105.182567,0.406805,-1.547291,1.044287
105.282567,0.406805,-1.547291,1.044287
105.382567,0.406805,-1.547291,1.044287
105.482567,0.406805,-1.547291,1.044287
105.582567,0.129598,-0.404337,0.413005
105.682567,1.512413,0.450269,-1.805299
105.782567,0.553059,0.498611,0.720080
105.882567,-0.345466,-2.109446,2.039464
105.982567,-0.542749,1.483647,-3.492444
106.082567,0.262254,-0.484685,1.048134
106.182567,0.073660,-1.381648,1.141817
106.282567,0.246355,0.450355,-1.501584
106.382567,-1.165141,-1.726932,1.795110
106.482567,-1.165141,-1.726932,1.795110
106.582567,-1.165141,-1.726932,1.795110
106.682567,-1.165141,-1.726932,1.795110
106.782567,-1.165141,-1.726932,1.795110
106.882567,-1.165141,-1.726932,1.795110
106.982567,-1.165141,-1.726932,1.795110
107.082567,-1.165141,-1.726932,1.795110
107.182567,-1.165141,-1.726932,1.795110
107.282567,-1.165141,-1.726932,1.795110
107.382567,-1.165141,-1.726932,1.795110
107.482567,-1.165141,-1.726932,1.795110
107.582567,-1.165141,-1.726932,1.795110
107.682567,-1.165141,-1.726932,1.795110
107.782567,0.383548,-1.055927,-0.000841
107.882567,-3.009122,-0.500125,-0.419125
107.982567,0.617264,-1.747931,1.296285
108.082567,1.044440,0.616559,-1.585639
108.182567,0.024780,-0.547336,1.017539
108.282567,-2.138427,0.690912,-0.660792
108.382567,-1.237600,-0.883934,-1.072153
108.482567,-0.492715,-0.824838,1.086955
108.582567,2.082052,1.272833,-2.268366
108.682567,2.082052,1.272833,-2.268366
108.782567,2.082052,1.272833,-2.268366
108.882567,2.082052,1.272833,-2.268366
108.982567,2.082052,1.272833,-2.268366
109.082567,2.082052,1.272833,-2.268366
109.182567,2.082052,1.272833,-2.268366
109.282567,2.082052,1.272833,-2.268366
109.382567,2.082052,1.272833,-2.268366
109.482567,2.082052,1.272833,-2.268366
109.582567,2.082052,1.272833,-2.268366
109.682567,2.082052,1.272833,-2.268366
109.782567,2.082052,1.272833,-2.268366
109.882567,2.082052,1.272833,-2.268366
109.982567,-0.961458,-0.607014,0.205341
110.082567,0.695205,0.097878,0.139573
110.182567,1.563264,-2.123874,0.955743
110.282567,0.258963,1.142411,-2.745440
110.382567,0.904773,-0.271231,0.422242
110.482567,1.854911,0.504111,-0.416773
110.582567,-0.426184,-1.134264,1.245063
110.682567,-1.383705,0.906673,-2.298548
110.782567,0.638250,-2.499874,2.297943
110.882567,0.638250,-2.499874,2.297943
110.982567,0.638250,-2.499874,2.297943
111.082567,0.638250,-2.499874,2.297943
111.182567,0.638250,-2.499874,2.297943
111.282567,0.638250,-2.499874,2.297943
111.382567,0.638250,-2.499874,2.297943
111.482567,0.638250,-2.499874,2.297943
111.582567,0.638250,-2.499874,2.297943
111.682567,0.638250,-2.499874,2.297943
111.782567,0.638250,-2.499874,2.297943
111.882567,0.638250,-2.499874,2.297943
111.982567,0.638250,-2.499874,2.297943
112.082567,0.638250,-2.499874,2.297943
112.182567,0.085712,-0.580492,1.004488
112.282567,0.023468,0.445711,-1.515804
112.382567,0.046718,-0.581281,1.562665
112.482567,0.460337,1.014385,-0.324931
112.582567,2.537048,-0.520362,0.625835
112.682567,-0.594349,0.591193,-1.304371
112.782567,-0.156423,-0.023963,-1.568948
112.882567,0.814501,-3.148117,4.743281
112.982567,1.485577,2.238561,-2.832387
113.082567,1.366355,-0.056990,-0.612267
113.182567,1.366355,-0.056990,-0.612267
113.282567,1.366355,-0.056990,-0.612267
113.382567,1.366355,-0.056990,-0.612267
113.482567,1.366355,-0.056990,-0.612267
113.582567,1.366355,-0.056990,-0.612267
113.682567,1.366355,-0.056990,-0.612267
113.782567,1.366355,-0.056990,-0.612267
113.882567,1.366355,-0.056990,-0.612267
113.982567,1.366355,-0.056990,-0.612267
114.082567,1.366355,-0.056990,-0.612267
114.182567,1.366355,-0.056990,-0.612267
114.282567,0.165932,-0.670790,0.340434
114.382567,0.906741,-0.214881,0.429376
114.482567,0.688504,0.275743,0.014604
114.582567,1.128263,-0.409400,0.297220
114.682567,-2.163234,-0.889941,0.106579
114.782567,-0.784486,0.846714,-0.648390
114.882567,0.181401,-1.061654,-0.235501
114.982567,1.754782,-1.499036,2.157940
115.082567,0.839983,0.798149,-1.054323
115.182567,0.839983,0.798149,-1.054323
115.282567,0.839983,0.798149,-1.054323
115.382567,0.839983,0.798149,-1.054323
115.482567,0.839983,0.798149,-1.054323
115.582567,0.839983,0.798149,-1.054323
115.682567,0.839983,0.798149,-1.054323
115.782567,0.839983,0.798149,-1.054323
115.882567,0.839983,0.798149,-1.054323
115.982567,0.839983,0.798149,-1.054323
116.082567,0.839983,0.798149,-1.054323
116.182567,0.839983,0.798149,-1.054323
116.282567,0.839983,0.798149,-1.054323
116.382567,0.839983,0.798149,-1.054323
116.482567,0.834559,0.000512,-1.494379
116.582567,-1.048797,0.325580,0.310136
116.682567,-1.846559,-0.462882,-1.449552
116.782567,1.393723,-1.489414,1.136223
116.882567,-0.239411,0.219991,0.583154
116.982567,0.448692,0.350046,-0.744779
117.082567,-0.277733,-0.384655,0.169628
117.182567,0.124663,-0.674600,0.538170
117.282567,-0.720208,0.749017,-0.474313
117.382567,-0.720208,0.749017,-0.474313
117.482567,-0.720208,0.749017,-0.474313
117.582567,-0.720208,0.749017,-0.474313
117.682567,-0.720208,0.749017,-0.474313
117.782567,-0.720208,0.749017,-0.474313
117.882567,-0.720208,0.749017,-0.474313
117.982567,-0.720208,0.749017,-0.474313
118.082567,-0.720208,0.749017,-0.474313
118.182567,-0.720208,0.749017,-0.474313
118.282567,-0.720208,0.749017,-0.474313
118.382567,-0.720208,0.749017,-0.474313
118.482567,-0.720208,0.749017,-0.474313
118.582567,-0.720208,0.749017,-0.474313
118.682567,0.514362,-0.429635,0.315728
118.782567,0.552313,-0.166533,-0.331851
118.882567,-0.268151,-0.166578,-0.325235
118.982567,0.120599,0.129818,-0.739194
119.082567,-1.024516,-1.963588,1.997836
119.182567,-0.853128,1.278838,-2.085909
119.282567,1.530053,-0.913624,1.382550
119.382567,0.830508,-0.179514,0.010456
119.482567,-1.807258,0.037369,0.093239
119.582567,-1.807258,0.037369,0.093239
119.682567,-1.807258,0.037369,0.093239
119.782567,-1.807258,0.037369,0.093239
119.882567,-1.807258,0.037369,0.093239
119.982567,-1.807258,0.037369,0.093239
120.082567,-1.807258,0.037369,0.093239
120.182567,-1.807258,0.037369,0.093239
120.282567,-1.807258,0.037369,0.093239
120.382567,-1.807258,0.037369,0.093239
120.482567,-1.807258,0.037369,0.093239
120.582567,-1.807258,0.037369,0.093239
120.682567,-1.807258,0.037369,0.093239
120.782567,-1.807258,0.037369,0.093239
120.882567,-0.737359,-2.469606,2.408468
120.982567,-1.912529,0.798544,-1.554064
121.082567,-0.011106,-0.768022,1.195173
121.182567,-0.949534,-0.726131,-0.278379
121.282567,0.536703,0.170522,0.337616
121.382567,2.110158,0.465472,-0.719061
121.482567,0.930393,-0.629508,1.074793
121.582567,0.634054,0.770133,-1.028234
121.682567,-0.096943,-0.057254,-0.368879
121.782567,-0.239983,-0.840322,1.051647
121.882567,-0.239983,-0.840322,1.051647
121.982567,-0.239983,-0.840322,1.051647
122.082567,-0.239983,-0.840322,1.051647
122.182567,-0.239983,-0.840322,1.051647
122.282567,-0.239983,-0.840322,1.051647
122.382567,-0.239983,-0.840322,1.051647
122.482567,-0.239983,-0.840322,1.051647
122.582567,-0.239983,-0.840322,1.051647
122.682567,-0.239983,-0.840322,1.051647
122.782567,-0.239983,-0.840322,1.051647
122.882567,-0.239983,-0.840322,1.051647
122.982567,-0.239983,-0.840322,1.051647
123.082567,0.638987,1.500895,-1.302076
123.182567,0.132206,-0.447932,0.348589
123.282567,-0.283345,0.133394,-0.247201
123.382567,-1.686759,-0.539715,0.321010
123.482567,0.702029,0.286035,-0.198062
123.582567,1.494100,-0.392986,0.558446
123.682567,0.002694,-0.286960,-0.217264
123.782567,0.758357,0.651178,-0.953809
123.882567,0.800281,-1.528691,2.067446
123.982567,-0.307708,2.146541,-2.648099
124.082567,-0.307708,2.146541,-2.648099
124.182567,-0.307708,2.146541,-2.648099
124.282567,-0.307708,2.146541,-2.648099
124.382567,-0.307708,2.146541,-2.648099
124.482567,-0.307708,2.146541,-2.648099
124.582567,-0.307708,2.146541,-2.648099
124.682567,-0.307708,2.146541,-2.648099
124.782567,-0.307708,2.146541,-2.648099
124.882567,-0.307708,2.146541,-2.648099
124.982567,-0.307708,2.146541,-2.648099
125.082567,-0.307708,2.146541,-2.648099
125.182567,-1.105882,0.585614,-1.063685
125.282567,-0.063142,-1.262436,0.967505
125.382567,0.901363,0.466417,0.029959
125.482567,-0.329451,0.131186,-0.397323
125.582567,-0.297697,0.007138,0.404043
125.682567,0.435594,-0.236055,0.289970
125.782567,1.157943,0.378537,-0.545822
125.882567,-0.522540,0.123668,-0.044212
125.982567,0.044741,-1.020077,0.441332
126.082567,-1.160092,-1.360969,-0.641365
126.182567,-1.160092,-1.360969,-0.641365
126.282567,-1.160092,-1.360969,-0.641365
126.382567,-1.160092,-1.360969,-0.641365
126.482567,-1.160092,-1.360969,-0.641365
126.582567,-1.160092,-1.360969,-0.641365
126.682567,-1.160092,-1.360969,-0.641365
126.782567,-1.160092,-1.360969,-0.641365
126.882567,-1.160092,-1.360969,-0.641365
126.982567,-1.160092,-1.360969,-0.641365
127.082567,-1.160092,-1.360969,-0.641365
127.182567,-1.160092,-1.360969,-0.641365
127.282567,-1.160092,-1.360969,-0.641365
127.382567,0.008882,-2.905615,0.094612
127.482567,0.588775,-1.582204,0.344831
127.582567,-0.207537,0.621651,0.077285
127.682567,-0.109498,0.712574,-0.359060
127.782567,-0.142782,1.565243,0.142993
127.882567,-0.223349,0.485170,0.143239
127.982567,0.237132,0.881555,0.172699
128.082567,0.238613,-0.097606,0.030724
128.182567,0.000659,0.228148,0.124761
128.282567,-0.539793,0.371091,0.090926
128.382567,-0.539793,0.371091,0.090926
128.482567,-0.539793,0.371091,0.090926
128.582567,-0.539793,0.371091,0.090926
128.682567,-0.539793,0.371091,0.090926
128.782567,-0.539793,0.371091,0.090926
128.882567,-0.539793,0.371091,0.090926
128.982567,-0.539793,0.371091,0.090926
129.082567,-0.539793,0.371091,0.090926
129.182567,-0.539793,0.371091,0.090926
129.282567,-0.539793,0.371091,0.090926
129.382567,-0.539793,0.371091,0.090926
129.482567,-0.539793,0.371091,0.090926
129.582567,0.662459,0.539367,-0.000723
129.682567,-0.687810,-0.650895,0.371730
129.782567,-1.956694,0.577611,-0.486434
129.882567,0.826678,0.583697,0.122351
129.982567,0.022428,1.243331,0.454827
130.082567,0.724383,1.654083,-0.677564
130.182567,0.249441,-0.184086,0.541457
130.282567,-0.548141,0.910778,-0.069622
130.382567,0.482353,0.437383,0.206230
130.482567,2.158991,-0.010669,0.397440
130.582567,2.158991,-0.010669,0.397440
130.682567,2.158991,-0.010669,0.397440
130.782567,2.158991,-0.010669,0.397440
130.882567,2.158991,-0.010669,0.397440
130.982567,2.158991,-0.010669,0.397440
131.082567,2.158991,-0.010669,0.397440
131.182567,2.158991,-0.010669,0.397440
131.282567,2.158991,-0.010669,0.397440
131.382567,2.158991,-0.010669,0.397440
131.482567,2.158991,-0.010669,0.397440
131.582567,2.158991,-0.010669,0.397440
131.682567,2.158991,-0.010669,0.397440
131.782567,2.957789,1.038660,-1.182036
131.882567,-0.161875,-0.387840,0.244272
131.982567,-0.093218,-0.408787,0.236376
132.082567,1.365923,-0.419411,0.771565
132.182567,3.323297,1.454403,-1.429535
132.282567,1.338993,0.264794,-1.157988
132.382567,0.598041,-1.453872,4.499969
132.482567,1.353117,0.501020,-1.483464
132.582567,4.250082,3.492387,-0.915885
132.682567,-1.014735,-4.165604,2.976303
132.782567,2.567553,-0.803005,-0.342559
132.882567,2.567553,-0.803005,-0.342559
132.982567,2.567553,-0.803005,-0.342559
133.082567,2.567553,-0.803005,-0.342559
133.182567,2.567553,-0.803005,-0.342559
133.282567,2.567553,-0.803005,-0.342559
133.382567,2.567553,-0.803005,-0.342559
133.482567,2.567553,-0.803005,-0.342559
133.582567,2.567553,-0.803005,-0.342559
133.682567,2.567553,-0.803005,-0.342559
133.782567,2.567553,-0.803005,-0.342559
133.882567,2.567553,-0.803005,-0.342559
133.982567,1.941234,-2.287475,4.423654
134.082567,0.191273,-2.742304,-0.319122
134.182567,0.757393,1.522203,-1.151887
134.282567,-2.067554,5.349771,-1.574957
134.382567,-2.391839,-5.558090,2.828308
134.482567,3.106193,1.121509,-3.109206
134.582567,-0.870609,0.048268,1.554543
134.682567,2.743185,-0.768857,0.048369
134.782567,1.341029,0.669727,0.568309
134.882567,-0.501101,-1.343807,1.616182
134.982567,-0.501101,-1.343807,1.616182
135.082567,-0.501101,-1.343807,1.616182
135.182567,-0.501101,-1.343807,1.616182
135.282567,-0.501101,-1.343807,1.616182
135.382567,-0.501101,-1.343807,1.616182
135.482567,-0.501101,-1.343807,1.616182
135.582567,-0.501101,-1.343807,1.616182
135.682567,-0.501101,-1.343807,1.616182
135.782567,-0.501101,-1.343807,1.616182
135.882567,-0.501101,-1.343807,1.616182
135.982567,-0.501101,-1.343807,1.616182
136.082567,-0.501101,-1.343807,1.616182
136.182567,-1.048217,-0.520335,-0.474262
136.282567,-2.255423,2.045274,-3.956245
136.382567,2.799031,-0.931476,4.033857
136.482567,2.621744,1.346051,-2.283385
136.582567,-2.453697,-1.225956,-0.980855
136.682567,0.069787,-2.606019,2.515569
136.782567,3.096462,2.167480,-1.217564
136.882567,0.243349,0.014004,-0.842873
136.982567,-2.769507,-2.963363,2.411704
137.082567,1.398120,1.537494,-1.127646
137.182567,0.515980,3.168232,-5.991719
137.282567,0.515980,3.168232,-5.991719
137.382567,0.515980,3.168232,-5.991719
137.482567,0.515980,3.168232,-5.991719
137.582567,0.515980,3.168232,-5.991719
137.682567,0.515980,3.168232,-5.991719
137.782567,0.515980,3.168232,-5.991719
137.882567,0.515980,3.168232,-5.991719
137.982567,0.515980,3.168232,-5.991719
138.082567,0.515980,3.168232,-5.991719
138.182567,0.515980,3.168232,-5.991719
138.282567,0.515980,3.168232,-5.991719
138.382567,-1.939244,-0.984394,-0.827774
138.482567,0.761471,1.044371,-0.566641
138.582567,-1.324925,-1.882277,0.769070
138.682567,-1.468317,1.049546,-1.448126
138.782567,0.667059,-0.372194,2.306656
138.882567,1.014772,-0.243527,0.001113
138.982567,0.055742,0.923646,-1.315269
139.082567,-0.362879,-1.378320,1.235327
139.182567,0.765604,0.378212,-0.535712
139.282567,-1.052994,0.219442,-0.499159
139.382567,-1.052994,0.219442,-0.499159
139.482567,-1.052994,0.219442,-0.499159
139.582567,-1.052994,0.219442,-0.499159
139.682567,-1.052994,0.219442,-0.499159
139.782567,-1.052994,0.219442,-0.499159
139.882567,-1.052994,0.219442,-0.499159
139.982567,-1.052994,0.219442,-0.499159
140.082567,-1.052994,0.219442,-0.499159
140.182567,-1.052994,0.219442,-0.499159
140.282567,-1.052994,0.219442,-0.499159
140.382567,-1.052994,0.219442,-0.499159
140.482567,-1.052994,0.219442,-0.499159
140.582567,-0.665487,0.737261,-0.217072
140.682567,-0.599189,-1.753153,0.716643
140.782567,-1.079452,-1.697063,0.527216
140.882567,0.475382,2.014298,-0.992853
140.982567,-0.306633,-1.632463,0.561247
141.082567,1.554748,1.144079,-1.130214
141.182567,-1.619326,-1.064042,0.685754
141.282567,-1.091119,-0.452137,-0.797895
141.382567,-1.091119,-0.452137,-0.797895
141.482567,-1.091119,-0.452137,-0.797895
141.582567,-1.091119,-0.452137,-0.797895
141.682567,-1.091119,-0.452137,-0.797895
141.782567,-1.091119,-0.452137,-0.797895
141.882567,-1.091119,-0.452137,-0.797895
141.982567,-1.091119,-0.452137,-0.797895
142.082567,-1.091119,-0.452137,-0.797895
142.182567,-1.091119,-0.452137,-0.797895
142.282567,-1.091119,-0.452137,-0.797895
142.382567,-1.091119,-0.452137,-0.797895
142.482567,-1.091119,-0.452137,-0.797895
142.582567,-1.091119,-0.452137,-0.797895
142.682567,-1.091119,-0.452137,-0.797895
142.782567,-0.853458,-0.209087,0.687935
142.882567,0.138412,0.455129,-0.628292
142.982567,-0.212741,-0.896241,1.488496
143.082567,-0.970530,-1.082009,-1.858492
143.182567,-0.898093,0.107832,-0.570757
143.282567,0.127701,-1.689260,1.983067
143.382567,2.182723,1.985867,-2.042420
143.482567,-0.070027,-0.984260,1.868647
143.582567,-0.707544,-1.599464,0.199634
143.682567,-0.707544,-1.599464,0.199634
143.782567,-0.707544,-1.599464,0.199634
143.882567,-0.707544,-1.599464,0.199634
143.982567,-0.707544,-1.599464,0.199634
144.082567,-0.707544,-1.599464,0.199634
144.182567,-0.707544,-1.599464,0.199634
144.282567,-0.707544,-1.599464,0.199634
144.382567,-0.707544,-1.599464,0.199634
144.482567,-0.707544,-1.599464,0.199634
144.582567,-0.707544,-1.599464,0.199634
144.682567,-0.707544,-1.599464,0.199634
144.782567,-0.707544,-1.599464,0.199634
144.882567,-0.707544,-1.599464,0.199634
144.982567,-1.405228,0.210178,-0.445253
145.082567,0.500032,-0.435145,2.021863
145.182567,0.108033,0.327457,-1.398603
145.282567,-0.445717,-1.251519,0.618639
145.382567,1.831387,0.532664,-0.349029
145.482567,1.017891,1.405649,-1.830904
145.582567,-0.736489,-2.974565,3.711667
145.682567,-0.678417,0.553499,-1.532775
145.782567,0.751183,1.169178,0.276497
145.882567,-0.639789,-0.857846,-0.916163
145.982567,-0.639789,-0.857846,-0.916163
146.082567,-0.639789,-0.857846,-0.916163
146.182567,-0.639789,-0.857846,-0.916163
146.282567,-0.639789,-0.857846,-0.916163
146.382567,-0.639789,-0.857846,-0.916163
146.482567,-0.639789,-0.857846,-0.916163
146.582567,-0.639789,-0.857846,-0.916163
146.682567,-0.639789,-0.857846,-0.916163
146.782567,-0.639789,-0.857846,-0.916163
146.882567,-0.639789,-0.857846,-0.916163
146.982567,-0.639789,-0.857846,-0.916163
147.082567,-0.534375,-2.278907,2.784463
147.182567,-0.382774,-1.184249,0.766113
147.282567,-2.733528,-0.485392,-0.092979
147.382567,-2.353927,1.395219,-0.997869
147.482567,-1.158976,-0.082964,0.554898
147.582567,-2.544343,0.846425,0.311074
147.682567,-1.044409,-0.570121,0.372090
147.782567,-1.320841,-0.559577,0.971529
147.882567,-2.397160,1.421344,-1.120043
147.982567,-0.325237,-0.919293,1.486212
148.082567,-0.746407,0.955121,-0.371816
148.182567,-0.746407,0.955121,-0.371816
148.282567,-0.746407,0.955121,-0.371816
148.382567,-0.746407,0.955121,-0.371816
148.482567,-0.746407,0.955121,-0.371816
148.582567,-0.746407,0.955121,-0.371816
148.682567,-0.746407,0.955121,-0.371816
148.782567,-0.746407,0.955121,-0.371816
148.882567,-0.746407,0.955121,-0.371816
148.982567,-0.746407,0.955121,-0.371816
149.082567,-0.746407,0.955121,-0.371816
149.182567,-0.746407,0.955121,-0.371816
149.282567,-1.456450,1.798430,-2.519333
149.382567,-1.123058,-2.007390,0.341810
149.482567,0.272280,1.310934,0.942442
149.582567,-0.997559,-0.366988,-2.549599
149.682567,-2.025705,1.279552,-1.391409
149.782567,-2.433856,-7.529342,6.213017
149.882567,2.075455,1.066855,-2.336153
149.982567,-1.250970,1.549559,-0.808894
150.082567,-0.034437,-0.652142,-0.971232
150.182567,-0.034437,-0.652142,-0.971232
150.282567,1.548839,-0.553357,1.279362
150.382567,1.548839,-0.553357,1.279362
150.482567,1.548839,-0.553357,1.279362
150.582567,1.548839,-0.553357,1.279362
150.682567,1.548839,-0.553357,1.279362
150.782567,1.548839,-0.553357,1.279362
150.882567,1.548839,-0.553357,1.279362
150.982567,1.548839,-0.553357,1.279362
151.082567,1.548839,-0.553357,1.279362
151.182567,1.548839,-0.553357,1.279362
151.282567,1.548839,-0.553357,1.279362
151.382567,1.548839,-0.553357,1.279362
151.482567,1.291228,0.589891,0.952740
151.582567,-0.824983,0.797153,-3.305857
151.682567,-1.038154,-2.190579,2.387102
151.782567,1.687275,0.455818,-0.291827
151.882567,0.758772,0.013283,-0.709698
151.982567,0.836837,-0.899667,0.984809
152.082567,0.442072,0.496628,0.149541
152.182567,0.295826,-1.124109,-1.045112
152.282567,0.129347,-1.015769,2.447816
152.382567,0.129347,-1.015769,2.447816
152.482567,0.129347,-1.015769,2.447816
152.582567,0.129347,-1.015769,2.447816
152.682567,0.129347,-1.015769,2.447816
152.782567,0.129347,-1.015769,2.447816
152.882567,0.129347,-1.015769,2.447816
152.982567,0.129347,-1.015769,2.447816
153.082567,0.129347,-1.015769,2.447816
153.182567,0.129347,-1.015769,2.447816
153.282567,0.129347,-1.015769,2.447816
153.382567,0.129347,-1.015769,2.447816
153.482567,0.129347,-1.015769,2.447816
153.582567,0.129347,-1.015769,2.447816
153.682567,0.268445,0.160801,-1.809072
153.782567,-0.269531,0.048829,0.021352
153.882567,-1.309298,-1.090288,0.149715
153.982567,-0.995734,-0.529000,-0.446944
154.082567,0.278109,0.221826,-0.116723
154.182567,1.518496,-2.638763,2.663987
154.282567,0.171518,0.805416,-0.635245
154.382567,0.275770,-1.761255,0.486433
154.482567,0.275770,-1.761255,0.486433
154.582567,-0.144627,-5.003281,5.192207
154.682567,0.249847,1.506066,-1.495408
154.782567,0.249847,1.506066,-1.495408
154.882567,0.249847,1.506066,-1.495408
154.982567,0.249847,1.506066,-1.495408
155.082567,0.249847,1.506066,-1.495408
155.182567,0.249847,1.506066,-1.495408
155.282567,0.249847,1.506066,-1.495408
155.382567,0.249847,1.506066,-1.495408
155.482567,0.249847,1.506066,-1.495408
155.582567,0.249847,1.506066,-1.495408
155.682567,0.249847,1.506066,-1.495408
155.782567,0.249847,1.506066,-1.495408
155.882567,0.796965,0.008210,1.467442
155.982567,-0.857155,-4.782473,4.915652
156.082567,-0.531854,3.245495,-3.778856
156.182567,0.013539,1.157537,-2.188541
156.282567,0.044583,-0.863490,0.881607
156.382567,-1.239069,-1.003160,0.501543
156.482567,0.594632,0.993619,-1.457547
156.582567,-0.549571,-2.450366,2.587727
156.682567,-0.544862,1.041970,-1.609033
156.782567,1.165073,0.481918,-0.458058
156.882567,1.165073,0.481918,-0.458058
156.982567,1.165073,0.481918,-0.458058
157.082567,1.165073,0.481918,-0.458058
157.182567,1.165073,0.481918,-0.458058
157.282567,1.165073,0.481918,-0.458058
157.382567,1.165073,0.481918,-0.458058
157.482567,1.165073,0.481918,-0.458058
157.582567,1.165073,0.481918,-0.458058
157.682567,1.165073,0.481918,-0.458058
157.782567,1.165073,0.481918,-0.458058
157.882567,1.165073,0.481918,-0.458058
157.982567,1.165073,0.481918,-0.458058
158.082567,0.711402,0.965499,-0.921489
158.182567,-0.511830,-0.544711,-0.157774
158.282567,-0.237867,-0.884255,1.026273
158.382567,-1.540608,0.152376,-1.033307
158.482567,0.471971,-0.546517,0.710548
158.582567,0.737562,1.589159,-1.901484
158.682567,0.053421,-1.406964,1.070397
158.782567,-1.027883,-0.692270,-1.331882
158.882567,0.284471,-0.590761,1.832383
158.982567,0.284471,-0.590761,1.832383
159.082567,0.848040,0.129867,-0.270261
159.082567,0.848040,0.129867,-0.270261
159.282567,0.848040,0.129867,-0.270261
159.382567,0.848040,0.129867,-0.270261
159.482567,0.848040,0.129867,-0.270261
159.582567,0.848040,0.129867,-0.270261
159.682567,0.848040,0.129867,-0.270261
159.782567,0.848040,0.129867,-0.270261
159.882567,0.848040,0.129867,-0.270261
159.982567,0.848040,0.129867,-0.270261
160.082567,0.848040,0.129867,-0.270261
160.182567,0.848040,0.129867,-0.270261
160.282567,0.324318,-0.982816,0.888064
160.382567,0.165091,0.612717,-1.266473
160.482567,-1.008166,0.055474,-0.017495
160.582567,0.260818,-0.031266,-3.389648
160.682567,0.737207,-1.089662,2.372796
160.782567,0.381652,1.077246,-0.013892
160.882567,-0.779006,-1.349808,0.186910
160.982567,2.018918,0.494505,-0.626963
161.082567,0.332572,1.165346,-0.573922
161.182567,0.332572,1.165346,-0.573922
161.282567,0.332572,1.165346,-0.573922
161.382567,0.332572,1.165346,-0.573922
161.482567,0.332572,1.165346,-0.573922
161.582567,0.332572,1.165346,-0.573922
161.682567,0.332572,1.165346,-0.573922
161.782567,0.332572,1.165346,-0.573922
161.882567,0.332572,1.165346,-0.573922
161.982567,0.332572,1.165346,-0.573922
162.082567,0.332572,1.165346,-0.573922
162.182567,0.332572,1.165346,-0.573922
162.282567,0.332572,1.165346,-0.573922
162.382567,0.332572,1.165346,-0.573922
162.482567,-0.273550,0.694675,-1.507157
162.582567,1.249189,-0.081835,0.713968
162.682567,0.147391,-0.512515,0.653675
162.782567,1.023165,0.420054,-2.121907
162.882567,-0.850360,-0.955516,2.667940
162.982567,2.289550,0.199824,-0.890571
163.082567,0.998442,1.376466,-1.298228
163.182567,-0.298538,-0.926467,2.205850
163.282567,-0.010006,-0.911384,-0.187362
163.382567,-1.440669,-0.184604,-1.038261
163.482567,-1.440669,-0.184604,-1.038261
163.582567,-1.440669,-0.184604,-1.038261
163.682567,-1.440669,-0.184604,-1.038261
163.782567,-1.440669,-0.184604,-1.038261
163.882567,-1.440669,-0.184604,-1.038261
163.982567,-1.440669,-0.184604,-1.038261
164.082567,-1.440669,-0.184604,-1.038261
164.182567,-1.440669,-0.184604,-1.038261
164.282567,-1.440669,-0.184604,-1.038261
164.382567,-1.440669,-0.184604,-1.038261
164.482567,-1.440669,-0.184604,-1.038261
164.582567,-1.440669,-0.184604,-1.038261
164.682567,0.005786,2.607729,-2.712465
164.782567,2.060654,-1.140640,1.836928
164.882567,0.376407,-0.067908,-0.484048
164.982567,-0.421938,1.407003,-1.202931
165.082567,-0.247795,-1.822767,1.130715
165.182567,1.620402,0.575726,0.325258
165.282567,-0.814491,-0.841400,-0.632034
165.382567,0.679939,0.947962,-0.452643
165.482567,1.370585,-2.699528,2.256213
165.582567,1.370585,-2.699528,2.256213
165.682567,1.370585,-2.699528,2.256213
165.782567,1.370585,-2.699528,2.256213
165.882567,1.370585,-2.699528,2.256213
165.982567,1.370585,-2.699528,2.256213
166.082567,1.370585,-2.699528,2.256213
166.182567,1.370585,-2.699528,2.256213
166.282567,1.370585,-2.699528,2.256213
166.382567,1.370585,-2.699528,2.256213
166.482567,1.370585,-2.699528,2.256213
166.582567,1.370585,-2.699528,2.256213
166.682567,1.370585,-2.699528,2.256213
166.782567,1.370585,-2.699528,2.256213
166.882567,0.256645,0.365639,-0.905041
166.982567,0.052881,0.406639,-1.450742
167.082567,-0.212587,-0.348060,-0.593013
167.182567,-0.205126,1.001439,-1.428131
167.282567,1.010725,-0.405156,1.226525
167.382567,0.463134,-0.025313,0.839481
167.482567,-0.874793,0.508963,0.428787
167.582567,-1.810509,0.162809,0.243724
167.682567,-1.620560,-1.043519,-0.301200
167.782567,-1.620560,-1.043519,-0.301200
167.882567,-1.620560,-1.043519,-0.301200
167.982567,-1.620560,-1.043519,-0.301200
168.082567,-1.620560,-1.043519,-0.301200
168.182567,-1.620560,-1.043519,-0.301200
168.282567,-1.620560,-1.043519,-0.301200
168.382567,-1.620560,-1.043519,-0.301200
168.482567,-1.620560,-1.043519,-0.301200
168.582567,-1.620560,-1.043519,-0.301200
168.682567,-1.620560,-1.043519,-0.301200
168.782567,-1.620560,-1.043519,-0.301200
168.882567,-1.620560,-1.043519,-0.301200
168.982567,-1.620560,-1.043519,-0.301200
169.082567,-0.130444,-0.548245,1.186764
169.182567,0.932981,1.325321,-1.854113
169.282567,0.671264,-0.710441,0.997552
169.382567,0.268988,-0.322509,0.890544
169.482567,-0.181743,2.071632,-2.568683
169.582567,0.593467,-2.612148,1.834099
169.682567,-0.650135,1.631882,-0.520729
169.782567,1.060645,0.353087,-1.511551
169.882567,0.973287,1.358737,0.872220
169.982567,0.973287,1.358737,0.872220
170.082567,0.973287,1.358737,0.872220
170.182567,0.973287,1.358737,0.872220
170.282567,0.973287,1.358737,0.872220
170.382567,0.973287,1.358737,0.872220
170.482567,0.973287,1.358737,0.872220
170.582567,0.973287,1.358737,0.872220
170.682567,0.973287,1.358737,0.872220
170.782567,0.973287,1.358737,0.872220
170.882567,0.973287,1.358737,0.872220
170.982567,0.973287,1.358737,0.872220
171.082567,0.973287,1.358737,0.872220
171.182567,1.453853,-0.335467,0.525469
171.282567,1.545132,-0.899015,0.531925
171.382567,3.361822,2.221493,-1.644403
171.482567,2.680442,-2.805093,2.757818
171.582567,-0.560231,2.465339,-4.133233
171.682567,-0.459045,-1.464875,1.614967
171.782567,-0.297190,1.043580,-0.142457
171.882567,2.504124,-0.088884,-0.129216
171.982567,2.399511,-1.220555,2.282900
172.082567,2.399511,-1.220555,2.282900
172.182567,2.399511,-1.220555,2.282900
172.282567,2.399511,-1.220555,2.282900
172.382567,2.399511,-1.220555,2.282900
172.482567,2.399511,-1.220555,2.282900
172.582567,2.399511,-1.220555,2.282900
172.682567,2.399511,-1.220555,2.282900
172.782567,2.399511,-1.220555,2.282900
172.882567,2.399511,-1.220555,2.282900
172.982567,2.399511,-1.220555,2.282900
173.082567,2.399511,-1.220555,2.282900
173.182567,2.399511,-1.220555,2.282900
173.282567,2.399511,-1.220555,2.282900
173.382567,1.075273,-3.307387,2.795300
173.482567,-0.812060,3.339264,-4.048484
173.582567,0.149712,-0.059481,-2.466017
173.682567,0.160391,0.145259,1.060391
173.782567,0.135800,-0.220459,1.845170
173.882567,0.380086,-3.114368,0.973552
173.982567,-1.022171,4.696352,0.150448
174.082567,-0.498205,-3.793068,2.909071
174.182567,0.747706,1.150068,-3.195899
174.282567,0.747706,1.150068,-3.195899
174.382567,0.747706,1.150068,-3.195899
174.482567,0.747706,1.150068,-3.195899
174.582567,0.747706,1.150068,-3.195899
174.682567,0.747706,1.150068,-3.195899
174.782567,0.747706,1.150068,-3.195899
174.882567,0.747706,1.150068,-3.195899
174.982567,0.747706,1.150068,-3.195899
175.082567,0.747706,1.150068,-3.195899
175.182567,0.747706,1.150068,-3.195899
175.282567,0.747706,1.150068,-3.195899
175.382567,0.747706,1.150068,-3.195899
175.482567,0.747706,1.150068,-3.195899
175.582567,-0.302518,-2.186424,3.142339
175.682567,-1.066756,-1.202507,1.224742
175.782567,0.882912,2.208031,-3.040809
175.882567,-0.626755,-2.272589,1.371985
175.982567,-0.880871,-1.371029,2.317703
176.082567,-2.943465,1.889060,-4.431176
176.182567,-0.401400,-1.728633,3.658863
176.282567,0.268050,1.308736,-2.722535
176.382567,-0.277666,-1.706270,-1.460965
176.482567,-1.566681,0.995765,-0.207935
176.582567,-1.566681,0.995765,-0.207935
176.682567,-1.566681,0.995765,-0.207935
176.782567,-1.566681,0.995765,-0.207935
176.882567,-1.566681,0.995765,-0.207935
176.982567,-1.566681,0.995765,-0.207935
177.082567,-1.566681,0.995765,-0.207935
177.182567,-1.566681,0.995765,-0.207935
177.282567,-1.566681,0.995765,-0.207935
177.382567,-1.566681,0.995765,-0.207935
177.482567,-1.566681,0.995765,-0.207935
177.582567,-1.566681,0.995765,-0.207935
177.682567,-1.566681,0.995765,-0.207935
177.782567,0.225537,-0.247275,-0.029694
177.882567,0.283590,-0.959987,-0.040092
177.982567,0.537336,0.395387,-0.653241
178.082567,-1.257439,-0.015203,-0.606243
178.182567,-0.672315,-1.050621,1.122433
178.282567,-0.370849,-0.813261,0.700247
178.382567,0.074584,0.667214,-0.973525
178.482567,-1.598458,-0.412162,-0.634075
178.582567,0.835062,-1.856347,2.565053
178.682567,0.835062,-1.856347,2.565053
178.782567,0.835062,-1.856347,2.565053
178.882567,0.835062,-1.856347,2.565053
178.982567,0.835062,-1.856347,2.565053
179.082567,0.835062,-1.856347,2.565053
179.182567,0.835062,-1.856347,2.565053
179.282567,0.835062,-1.856347,2.565053
179.382567,0.835062,-1.856347,2.565053
179.482567,0.835062,-1.856347,2.565053
179.582567,0.835062,-1.856347,2.565053
179.682567,0.835062,-1.856347,2.565053
179.782567,0.835062,-1.856347,2.565053
179.882567,0.835062,-1.856347,2.565053
179.982567,-0.274556,-2.585524,2.818765
180.082567,0.329827,2.418032,-3.806554
180.182567,-0.005665,-3.049300,2.881451
180.282567,0.291952,0.633286,-0.725478
180.382567,-0.984168,0.649971,-1.197232
180.482567,-1.574558,-2.000395,-0.283857
180.582567,0.132021,1.099691,0.540540
180.682567,0.093246,-1.952451,0.412371
180.782567,-0.413828,0.255782,-0.971939
180.882567,-1.562238,-1.245541,3.265499
180.982567,-1.562238,-1.245541,3.265499
181.082567,-1.562238,-1.245541,3.265499
181.182567,-1.562238,-1.245541,3.265499
181.282567,-1.562238,-1.245541,3.265499
181.382567,-1.562238,-1.245541,3.265499
181.482567,-1.562238,-1.245541,3.265499
181.582567,-1.562238,-1.245541,3.265499
181.682567,-1.562238,-1.245541,3.265499
181.782567,-1.562238,-1.245541,3.265499
181.882567,-1.562238,-1.245541,3.265499
181.982567,-1.562238,-1.245541,3.265499
182.082567,-1.562238,-1.245541,3.265499
182.182567,-0.236766,-0.664110,-0.097923
182.282567,0.795751,0.022190,0.866665
182.382567,-0.165059,0.414496,-0.499793
182.482567,0.236671,-0.487517,-1.069781
182.582567,-1.333646,-0.467657,3.375928
182.682567,0.487367,1.044315,-3.099010
182.782567,-1.925536,0.362743,-2.144920
182.882567,-0.336993,-3.722949,3.827193
182.982567,0.885418,-0.008833,-0.373336
183.082567,0.885418,-0.008833,-0.373336
183.182567,0.885418,-0.008833,-0.373336
183.282567,0.885418,-0.008833,-0.373336
183.382567,0.885418,-0.008833,-0.373336
183.482567,0.885418,-0.008833,-0.373336
183.582567,0.885418,-0.008833,-0.373336
183.682567,0.885418,-0.008833,-0.373336
183.782567,0.885418,-0.008833,-0.373336
183.882567,0.885418,-0.008833,-0.373336
183.982567,0.885418,-0.008833,-0.373336
184.082567,0.885418,-0.008833,-0.373336
184.182567,0.885418,-0.008833,-0.373336
184.282567,0.885418,-0.008833,-0.373336
184.382567,-1.678486,-2.660247,1.299327
184.482567,0.106011,-0.314661,0.571028
184.582567,0.532759,2.075944,-2.645320
184.682567,-0.279111,-2.322352,2.625562
184.782567,-0.389019,0.192642,-0.706768
184.882567,1.135508,2.127262,-1.087327
184.982567,0.478275,-1.730963,0.139174
185.082567,-3.144523,1.377611,-1.798740
185.182567,-1.547894,-3.974363,3.843652
185.282567,0.122283,2.791698,-2.391479
185.382567,1.526957,-0.296190,0.006059
185.482567,1.526957,-0.296190,0.006059
185.582567,1.526957,-0.296190,0.006059
185.682567,1.526957,-0.296190,0.006059
185.782567,1.526957,-0.296190,0.006059
185.882567,1.526957,-0.296190,0.006059
185.982567,1.526957,-0.296190,0.006059
186.082567,1.526957,-0.296190,0.006059
186.182567,1.526957,-0.296190,0.006059
186.282567,1.526957,-0.296190,0.006059
186.382567,1.526957,-0.296190,0.006059
186.482567,1.526957,-0.296190,0.006059
186.582567,-0.531766,-1.228597,0.036982
186.682567,-1.661525,1.493480,-1.616055
186.782567,0.163961,-1.693223,2.899350
186.882567,0.378047,-0.815911,1.647097
186.982567,-1.444189,1.910406,-3.619915
187.082567,1.231830,0.566975,-2.547655
187.182567,0.551416,-3.152353,4.539276
187.282567,1.575070,0.582620,-0.304885
187.382567,1.575070,0.582620,-0.304885
187.482567,1.575070,0.582620,-0.304885
187.582567,1.575070,0.582620,-0.304885
187.682567,1.575070,0.582620,-0.304885
187.782567,1.575070,0.582620,-0.304885
187.882567,1.575070,0.582620,-0.304885
187.982567,1.575070,0.582620,-0.304885
188.082567,1.575070,0.582620,-0.304885
188.182567,1.575070,0.582620,-0.304885
188.282567,1.575070,0.582620,-0.304885
188.382567,1.575070,0.582620,-0.304885
188.482567,1.575070,0.582620,-0.304885
188.582567,1.575070,0.582620,-0.304885
188.682567,1.575070,0.582620,-0.304885
188.782567,-0.970973,3.100640,-3.856545
188.882567,-1.223134,-2.341588,-3.316322
188.982567,-0.408272,-5.496537,2.470140
189.082567,-0.652651,-0.811337,-0.836563
189.182567,0.519374,0.538526,-2.246502
189.282567,0.293105,3.432652,-3.044922
189.382567,1.897661,-4.577386,3.841738
189.482567,0.472498,1.328382,-2.060910
189.582567,-2.519592,0.257686,-0.457912
189.682567,-2.519592,0.257686,-0.457912
189.782567,-2.519592,0.257686,-0.457912
189.882567,-2.519592,0.257686,-0.457912
189.982567,-2.519592,0.257686,-0.457912
190.082567,-2.519592,0.257686,-0.457912
190.182567,-2.519592,0.257686,-0.457912
190.282567,-2.519592,0.257686,-0.457912
190.382567,-2.519592,0.257686,-0.457912
190.482567,-2.519592,0.257686,-0.457912
190.582567,-2.519592,0.257686,-0.457912
190.682567,-2.519592,0.257686,-0.457912
190.782567,-2.519592,0.257686,-0.457912
190.882567,-2.519592,0.257686,-0.457912
190.982567,-1.014978,1.644656,-1.892408
191.082567,-0.348224,0.194602,0.979783
191.182567,-2.065069,0.409508,1.218367
191.282567,-3.124594,0.392495,-2.937373
191.382567,0.001921,-1.839863,2.277959
191.482567,-1.916130,0.195844,0.333577
191.582567,-2.737192,-0.641954,0.513085
191.682567,-1.013411,0.195530,-0.278391
191.782567,0.629604,-0.848733,1.514408
191.882567,0.629604,-0.848733,1.514408
191.982567,0.629604,-0.848733,1.514408
192.082567,0.629604,-0.848733,1.514408
192.182567,0.629604,-0.848733,1.514408
192.282567,0.629604,-0.848733,1.514408
192.382567,0.629604,-0.848733,1.514408
192.482567,0.629604,-0.848733,1.514408
192.582567,0.629604,-0.848733,1.514408
192.682567,0.629604,-0.848733,1.514408
192.782567,0.629604,-0.848733,1.514408
192.882567,0.629604,-0.848733,1.514408
192.982567,0.629604,-0.848733,1.514408
193.082567,-2.322482,3.570971,-4.443274
193.182567,-0.185678,-3.493805,3.516384
193.282567,-0.051015,1.341083,-1.889963
193.382567,-1.002815,-0.391086,-1.312373
193.482567,-2.544419,-1.998184,4.996170
193.582567,-0.999023,0.932314,-4.974805
193.682567,0.558184,2.587835,-0.508139
193.782567,-1.392306,-3.916706,0.329886
193.882567,-0.603827,1.990581,-2.936587
193.982567,-0.603827,1.990581,-2.936587
194.082567,-0.603827,1.990581,-2.936587
194.182567,-0.603827,1.990581,-2.936587
194.282567,-0.603827,1.990581,-2.936587
194.382567,-0.603827,1.990581,-2.936587
194.482567,-0.603827,1.990581,-2.936587
194.582567,-0.603827,1.990581,-2.936587
194.682567,-0.603827,1.990581,-2.936587
194.782567,-0.603827,1.990581,-2.936587
194.882567,-0.603827,1.990581,-2.936587
194.982567,-0.603827,1.990581,-2.936587
195.082567,-0.603827,1.990581,-2.936587
195.182567,-0.603827,1.990581,-2.936587
195.282567,-1.496111,0.178229,0.559385
195.382567,0.334894,-2.462299,0.323530
195.482567,0.891890,2.155612,-0.921125
195.582567,0.986083,-0.712435,1.295362
195.682567,-0.445771,1.430055,-2.762357
195.782567,-1.035289,-1.845702,0.667132
195.882567,-1.464404,-0.656663,0.268088
195.982567,2.288043,-0.942104,0.890880
196.082567,0.959487,1.178528,-0.153016
196.182567,-1.407480,-0.614282,-0.221394
196.282567,-1.407480,-0.614282,-0.221394
196.382567,-1.407480,-0.614282,-0.221394
196.482567,-1.407480,-0.614282,-0.221394
196.582567,-1.407480,-0.614282,-0.221394
196.682567,-1.407480,-0.614282,-0.221394
196.782567,-1.407480,-0.614282,-0.221394
196.882567,-1.407480,-0.614282,-0.221394
196.982567,-1.407480,-0.614282,-0.221394
197.082567,-1.407480,-0.614282,-0.221394
197.182567,-1.407480,-0.614282,-0.221394
197.282567,-1.407480,-0.614282,-0.221394
197.382567,-1.407480,-0.614282,-0.221394
197.482567,0.315965,2.146635,0.047036
197.582567,0.942607,-1.137162,0.069492
197.682567,-0.323330,-2.819352,2.142304
197.782567,-0.554599,-0.701696,-0.589372
197.882567,0.771628,-0.305041,0.644449
197.982567,0.376287,-0.468697,-0.254869
198.082567,-0.593149,-0.913810,-1.167968
198.182567,-1.230059,0.440983,-0.393491
198.282567,0.816908,-0.153286,-1.852171
198.382567,0.816908,-0.153286,-1.852171
198.482567,0.816908,-0.153286,-1.852171
198.582567,0.816908,-0.153286,-1.852171
198.682567,0.816908,-0.153286,-1.852171
198.782567,0.816908,-0.153286,-1.852171
198.882567,0.816908,-0.153286,-1.852171
198.982567,0.816908,-0.153286,-1.852171
199.082567,0.816908,-0.153286,-1.852171
199.182567,0.816908,-0.153286,-1.852171
199.282567,0.816908,-0.153286,-1.852171
199.382567,0.816908,-0.153286,-1.852171
199.482567,0.816908,-0.153286,-1.852171
199.582567,0.816908,-0.153286,-1.852171
199.682567,0.629675,-1.112591,0.075720
199.782567,-0.429293,-0.030523,-0.040645
199.882567,0.822039,-0.144254,-1.016797
199.982567,-1.328329,-1.652725,1.618292
200.082567,0.611115,0.114510,-0.250965
200.182567,1.140378,-0.253678,1.795830
200.282567,-0.484731,-1.130948,0.713126
200.382567,0.202662,0.719250,-2.499058
200.482567,0.202662,0.719250,-2.499058
200.582567,0.202662,0.719250,-2.499058
200.682567,0.064899,0.182161,-0.875354
200.782567,0.064899,0.182161,-0.875354
200.882567,0.064899,0.182161,-0.875354
200.982567,0.064899,0.182161,-0.875354
201.082567,0.064899,0.182161,-0.875354
201.182567,0.064899,0.182161,-0.875354
201.282567,0.064899,0.182161,-0.875354
201.382567,0.064899,0.182161,-0.875354
201.482567,0.064899,0.182161,-0.875354
201.582567,0.064899,0.182161,-0.875354
201.682567,0.064899,0.182161,-0.875354
201.782567,0.064899,0.182161,-0.875354
201.882567,1.227569,1.357191,-1.143231
201.982567,-0.636138,0.460831,-1.486711
202.082567,-0.246417,-1.852767,0.140406
202.182567,0.078565,0.576523,0.040111
202.282567,-0.610726,-3.688244,2.577095
202.382567,0.641427,1.537998,-1.745816
202.482567,-2.181416,-0.681489,-0.602131
202.582567,0.089801,-1.511985,1.218370
202.682567,0.089801,-1.511985,1.218370
202.782567,-0.583838,-1.588020,1.714659
202.882567,-0.583838,-1.588020,1.714659
202.982567,-0.583838,-1.588020,1.714659
203.082567,-0.583838,-1.588020,1.714659
203.182567,-0.583838,-1.588020,1.714659
203.282567,-0.583838,-1.588020,1.714659
203.382567,-0.583838,-1.588020,1.714659
203.482567,-0.583838,-1.588020,1.714659
203.582567,-0.583838,-1.588020,1.714659
203.682567,-0.583838,-1.588020,1.714659
203.782567,-0.583838,-1.588020,1.714659
203.882567,-0.583838,-1.588020,1.714659
203.982567,-0.583838,-1.588020,1.714659
204.082567,-0.348167,-0.133948,-4.227195
204.182567,-3.861836,-3.428788,2.516159
204.282567,-0.256734,4.189252,-2.841509
204.382567,0.576028,-3.040232,-0.755470
204.482567,-1.674355,-1.388983,1.983529
204.582567,0.263106,-0.039446,0.267112
204.682567,0.399782,1.414509,-1.943147
204.782567,0.399782,1.414509,-1.943147
204.882567,-1.870837,0.449824,-0.085511
204.982567,-1.870837,0.449824,-0.085511
205.082567,-1.870837,0.449824,-0.085511
205.182567,-1.870837,0.449824,-0.085511
205.282567,-1.870837,0.449824,-0.085511
205.382567,-1.870837,0.449824,-0.085511
205.482567,-1.870837,0.449824,-0.085511
205.582567,-1.870837,0.449824,-0.085511
205.682567,-1.870837,0.449824,-0.085511
205.782567,-1.870837,0.449824,-0.085511
205.882567,-1.870837,0.449824,-0.085511
205.982567,-1.870837,0.449824,-0.085511
206.082567,-1.870837,0.449824,-0.085511
206.182567,-1.870837,0.449824,-0.085511
206.282567,-1.372003,1.131537,-0.264123
206.382567,0.513113,-0.943665,0.315320
206.482567,-0.157257,1.764413,-2.430168
206.582567,-1.291493,-1.952801,2.999500
206.682567,-0.196387,-0.577489,1.778847
206.782567,-0.270780,1.427799,-1.795135
206.882567,0.061643,1.442097,-2.014693
206.982567,0.061643,1.442097,-2.014693
207.082567,-1.467130,0.026302,1.572114
207.182567,-1.467130,0.026302,1.572114
207.282567,-1.467130,0.026302,1.572114
207.382567,-1.467130,0.026302,1.572114
207.482567,-1.467130,0.026302,1.572114
207.582567,-1.467130,0.026302,1.572114
207.682567,-1.467130,0.026302,1.572114
207.782567,-1.467130,0.026302,1.572114
207.882567,-1.467130,0.026302,1.572114
207.982567,-1.467130,0.026302,1.572114
208.082567,-1.467130,0.026302,1.572114
208.182567,-1.467130,0.026302,1.572114
208.282567,-1.467130,0.026302,1.572114
208.382567,-1.467130,0.026302,1.572114
208.482567,0.805701,0.532101,-0.317384
208.582567,-0.524664,-0.113979,0.122459
208.682567,-0.630287,-0.401297,-0.175314
208.782567,0.166002,-0.039417,-0.574112
208.882567,0.901794,0.527931,1.160675
208.982567,1.302485,-0.356457,-0.164513
209.082567,-0.044157,1.079260,-1.033851
209.182567,0.254658,-1.144390,0.573290
209.282567,0.254658,-1.144390,0.573290
209.382567,-0.555725,-2.101936,4.129492
209.482567,-0.555725,-2.101936,4.129492
209.582567,-0.555725,-2.101936,4.129492
209.682567,-0.555725,-2.101936,4.129492
209.782567,-0.555725,-2.101936,4.129492
209.882567,-0.555725,-2.101936,4.129492
209.982567,-0.555725,-2.101936,4.129492
210.082567,-0.555725,-2.101936,4.129492
210.182567,-0.555725,-2.101936,4.129492
210.282567,-0.555725,-2.101936,4.129492
210.382567,-0.555725,-2.101936,4.129492
210.482567,-0.555725,-2.101936,4.129492
210.582567,-0.555725,-2.101936,4.129492
210.682567,0.057188,0.921223,-1.905782
210.782567,0.779705,0.079753,1.667720
210.882567,0.685611,0.082403,-0.911263
210.982567,-1.153934,0.469597,-0.875876
211.082567,0.232659,-0.050966,0.827466
211.182567,0.026479,-1.960464,0.406782
211.282567,0.177582,0.822419,-1.576715
211.382567,-0.967271,0.494927,-0.704594
211.482567,0.243819,-0.091033,0.636115
211.582567,0.243819,-0.091033,0.636115
211.682567,0.243819,-0.091033,0.636115
211.782567,0.243819,-0.091033,0.636115
211.882567,0.243819,-0.091033,0.636115
211.982567,0.243819,-0.091033,0.636115
212.082567,0.243819,-0.091033,0.636115
212.182567,0.243819,-0.091033,0.636115
212.282567,0.243819,-0.091033,0.636115
212.382567,0.243819,-0.091033,0.636115
212.482567,0.243819,-0.091033,0.636115
212.582567,0.243819,-0.091033,0.636115
212.682567,0.243819,-0.091033,0.636115
212.782567,0.243819,-0.091033,0.636115
212.882567,0.447909,0.257105,1.433887
212.982567,0.165097,0.746585,-2.513607
213.082567,-1.325457,-1.470515,1.558299
213.182567,-0.338492,-0.662879,0.553758
213.282567,1.949883,1.171318,-1.018846
213.382567,0.017249,0.783831,-1.362965
213.482567,-2.060480,-1.825367,1.802289
213.582567,-0.836650,0.046510,0.354760
213.682567,0.591686,0.500591,-1.714698
213.782567,0.591686,0.500591,-1.714698
213.882567,0.591686,0.500591,-1.714698
213.982567,0.591686,0.500591,-1.714698
214.082567,0.591686,0.500591,-1.714698
214.182567,0.591686,0.500591,-1.714698
214.282567,0.591686,0.500591,-1.714698
214.382567,0.591686,0.500591,-1.714698
214.482567,0.591686,0.500591,-1.714698
214.582567,0.591686,0.500591,-1.714698
214.682567,0.591686,0.500591,-1.714698
214.782567,0.591686,0.500591,-1.714698
214.882567,0.591686,0.500591,-1.714698
214.982567,0.090472,-0.217266,0.493783
215.082567,-0.533153,-1.048955,1.028780
215.182567,0.816512,-0.804519,0.319596
215.282567,1.423881,1.303966,-0.765247
215.382567,-0.591963,-0.729017,0.501841
215.482567,0.390992,-0.920125,1.506396
215.582567,1.050731,1.907329,-2.114909
215.682567,-0.431243,-0.914250,0.441150
215.782567,0.283229,0.306782,-0.496040
215.882567,0.195380,0.279112,-0.296716
215.982567,-0.878698,-0.696014,0.232003
216.082567,-0.878698,-0.696014,0.232003
216.182567,-0.878698,-0.696014,0.232003
216.282567,-0.878698,-0.696014,0.232003
216.382567,-0.878698,-0.696014,0.232003
216.482567,-0.878698,-0.696014,0.232003
216.582567,-0.878698,-0.696014,0.232003
216.682567,-0.878698,-0.696014,0.232003
216.782567,-0.878698,-0.696014,0.232003
216.882567,-0.878698,-0.696014,0.232003
216.982567,-0.878698,-0.696014,0.232003
217.082567,-0.878698,-0.696014,0.232003
217.182567,-0.469873,-0.231699,-0.640136
217.282567,1.180134,1.953579,-1.161055
217.382567,1.273818,-0.490805,0.720537
217.482567,-0.190355,-0.752560,0.067343
217.582567,-0.059296,1.263496,-0.334430
217.682567,-0.421162,-0.143580,0.220590
217.782567,0.669190,-0.778744,0.152667
217.882567,0.169585,-0.070954,-0.408341
217.982567,-0.379542,0.373042,0.758567
218.082567,-0.379542,0.373042,0.758567
218.182567,-0.098491,-0.768615,1.151225
218.282567,-0.098491,-0.768615,1.151225
218.382567,-0.098491,-0.768615,1.151225
218.482567,-0.098491,-0.768615,1.151225
218.582567,-0.098491,-0.768615,1.151225
218.682567,-0.098491,-0.768615,1.151225
218.782567,-0.098491,-0.768615,1.151225
218.882567,-0.098491,-0.768615,1.151225
218.982567,-0.098491,-0.768615,1.151225
219.082567,-0.098491,-0.768615,1.151225
219.182567,-0.098491,-0.768615,1.151225
219.282567,-0.098491,-0.768615,1.151225
219.382567,0.048724,0.710125,-1.160720
219.482567,-0.167044,-0.573136,0.056257
219.582567,0.297616,-0.090515,0.288263
219.682567,-0.101191,0.451135,0.544946
219.782567,-0.182068,0.007844,-0.964628
219.882567,-0.550404,0.181133,0.609327
219.982567,0.035720,-0.401149,-0.346512
220.082567,0.510698,-0.317091,1.684573
220.182567,0.916834,1.469373,-1.415213
220.282567,0.916834,1.469373,-1.415213
220.382567,0.916834,1.469373,-1.415213
220.482567,0.916834,1.469373,-1.415213
220.582567,0.916834,1.469373,-1.415213
220.682567,0.916834,1.469373,-1.415213
220.782567,0.916834,1.469373,-1.415213
220.882567,0.916834,1.469373,-1.415213
220.982567,0.916834,1.469373,-1.415213
221.082567,0.916834,1.469373,-1.415213
221.182567,0.916834,1.469373,-1.415213
221.282567,0.916834,1.469373,-1.415213
221.382567,0.916834,1.469373,-1.415213
221.482567,0.916834,1.469373,-1.415213
221.582567,-0.932557,-0.922608,0.609058
221.682567,-0.090447,1.127285,-1.676330
221.782567,-0.194250,-0.466278,1.467335
221.882567,0.237854,-0.430889,0.448048
221.982567,1.101812,0.036273,-0.067046
222.082567,-0.450967,1.174634,-1.571483
222.182567,-1.949107,-1.888276,2.223945
222.282567,-0.846519,0.161088,-0.915921
222.382567,0.851348,1.218650,0.005824
222.482567,1.948394,-0.431156,-0.062955
222.582567,-0.552746,0.394218,0.104515
222.682567,-0.552746,0.394218,0.104515
222.782567,-0.552746,0.394218,0.104515
222.882567,-0.552746,0.394218,0.104515
222.982567,-0.552746,0.394218,0.104515
223.082567,-0.552746,0.394218,0.104515
223.182567,-0.552746,0.394218,0.104515
223.282567,-0.552746,0.394218,0.104515
223.382567,-0.552746,0.394218,0.104515
223.482567,-0.552746,0.394218,0.104515
223.582567,-0.552746,0.394218,0.104515
223.682567,-0.552746,0.394218,0.104515
223.782567,-0.030289,0.383249,1.105255
223.882567,-0.807205,0.555180,-1.434103
223.982567,-1.366800,-0.192719,-0.109439
224.082567,-0.326913,-0.283059,-0.126364
224.182567,-0.042729,-2.748575,1.791574
224.282567,-1.325109,2.134836,-4.837428
224.382567,0.658155,0.162184,1.335175
224.482567,1.090481,-0.315921,-0.983807
224.582567,-0.198900,-0.221132,0.011909
224.682567,0.785067,0.475785,0.956777
224.782567,0.785067,0.475785,0.956777
224.882567,0.785067,0.475785,0.956777
224.982567,0.785067,0.475785,0.956777
225.082567,0.785067,0.475785,0.956777
225.182567,0.785067,0.475785,0.956777
225.282567,0.785067,0.475785,0.956777
225.382567,0.785067,0.475785,0.956777
225.482567,0.785067,0.475785,0.956777
225.582567,0.785067,0.475785,0.956777
225.682567,0.785067,0.475785,0.956777
225.782567,0.785067,0.475785,0.956777
225.882567,0.785067,0.475785,0.956777
225.982567,0.199050,0.247100,-1.149283
226.082567,0.194750,-0.172457,1.381160
226.182567,0.408007,-1.222611,-0.255671
226.282567,-0.123947,0.024543,0.483194
226.382567,-1.593420,0.576536,-1.694822
226.482567,-0.257556,-0.396801,1.030477
226.582567,-0.125882,-0.480752,0.171819
226.682567,0.313132,0.920506,-1.308459
226.782567,-0.427272,-0.708882,0.453219
226.882567,-1.231239,-1.964046,1.911302
226.982567,-0.032726,2.394415,-2.611122
227.082567,-0.032726,2.394415,-2.611122
227.182567,-0.032726,2.394415,-2.611122
227.282567,-0.032726,2.394415,-2.611122
227.382567,-0.032726,2.394415,-2.611122
227.482567,-0.032726,2.394415,-2.611122
227.582567,-0.032726,2.394415,-2.611122
227.682567,-0.032726,2.394415,-2.611122
227.782567,-0.032726,2.394415,-2.611122
227.882567,-0.032726,2.394415,-2.611122
227.982567,-0.032726,2.394415,-2.611122
228.082567,-0.032726,2.394415,-2.611122
228.182567,-0.117331,-3.687905,4.173232
228.282567,-0.673473,1.064789,-2.669268
228.382567,-0.782320,0.483853,-0.173658
228.482567,1.241389,-0.183904,0.404171
228.582567,-0.119937,0.818375,-1.509191
228.682567,0.383486,-0.376164,0.431582
228.782567,-1.807253,-0.505463,0.183802
228.882567,0.013370,0.059407,-0.619032
228.982567,0.289429,-0.621111,0.490386
229.082567,-0.406444,0.405486,-1.172656
229.182567,-0.406444,0.405486,-1.172656
229.282567,-0.406444,0.405486,-1.172656
229.382567,-0.406444,0.405486,-1.172656
229.482567,-0.406444,0.405486,-1.172656
229.582567,-0.406444,0.405486,-1.172656
229.682567,-0.406444,0.405486,-1.172656
229.782567,-0.406444,0.405486,-1.172656
229.882567,-0.406444,0.405486,-1.172656
229.982567,-0.406444,0.405486,-1.172656
230.082567,-0.406444,0.405486,-1.172656
230.182567,-0.406444,0.405486,-1.172656
230.282567,-0.406444,0.405486,-1.172656
230.382567,-1.639858,-2.123139,-0.128069
230.482567,-0.506109,2.068066,-1.207129
230.582567,-0.510749,0.324009,-0.052518
230.682567,2.018941,-0.763888,0.207123
230.782567,-0.670850,-0.593675,0.523810
230.882567,-0.550699,1.022199,-1.968230
230.982567,0.523389,-1.386750,1.850204
231.082567,1.153638,0.161361,-0.382031
231.182567,0.702302,0.168698,-0.119286
231.282567,-1.092090,-0.438208,0.138548
231.382567,-1.092090,-0.438208,0.138548
231.482567,-1.092090,-0.438208,0.138548
231.582567,-1.092090,-0.438208,0.138548
231.682567,-1.092090,-0.438208,0.138548
231.782567,-1.092090,-0.438208,0.138548
231.882567,-1.092090,-0.438208,0.138548
231.982567,-1.092090,-0.438208,0.138548
232.082567,-1.092090,-0.438208,0.138548
232.182567,-1.092090,-0.438208,0.138548
232.282567,-1.092090,-0.438208,0.138548
232.382567,-1.092090,-0.438208,0.138548
232.482567,-1.092090,-0.438208,0.138548
232.582567,1.028747,-0.122175,-0.137824
232.682567,-0.803710,0.761717,-1.836460
232.782567,-1.022714,-0.575744,0.628474
232.882567,0.624294,-2.407438,1.751668
232.982567,-0.942623,1.513222,-1.704137
233.082567,1.113516,1.910896,-1.723955
233.182567,-1.138301,-2.150044,1.878875
233.282567,-0.610663,-0.641518,0.338156
233.382567,1.009387,0.626402,-1.181430
233.482567,1.009387,0.626402,-1.181430
233.582567,1.009387,0.626402,-1.181430
233.682567,1.009387,0.626402,-1.181430
233.782567,1.009387,0.626402,-1.181430
233.882567,1.009387,0.626402,-1.181430
233.982567,1.009387,0.626402,-1.181430
234.082567,1.009387,0.626402,-1.181430
234.182567,1.009387,0.626402,-1.181430
234.282567,1.009387,0.626402,-1.181430
234.382567,1.009387,0.626402,-1.181430
234.482567,1.009387,0.626402,-1.181430
234.582567,1.009387,0.626402,-1.181430
234.682567,1.009387,0.626402,-1.181430
234.782567,-0.772246,-0.084241,-0.207378
234.882567,-0.221253,1.893388,-1.591190
234.982567,-0.176090,-1.313866,0.581245
235.082567,0.925323,-0.696664,1.381611
235.182567,0.165316,1.598883,-0.909552
235.282567,0.379938,-0.979139,-0.646120
235.382567,-0.941777,0.664433,0.440437
235.482567,-0.004014,-0.897974,0.942491
235.582567,0.680188,0.738748,-0.291522
235.682567,0.680188,0.738748,-0.291522
235.782567,0.680188,0.738748,-0.291522
235.882567,0.680188,0.738748,-0.291522
235.982567,0.680188,0.738748,-0.291522
236.082567,0.680188,0.738748,-0.291522
236.182567,0.680188,0.738748,-0.291522
236.282567,0.680188,0.738748,-0.291522
236.382567,0.680188,0.738748,-0.291522
236.482567,0.680188,0.738748,-0.291522
236.582567,0.680188,0.738748,-0.291522
236.682567,0.680188,0.738748,-0.291522
236.782567,0.680188,0.738748,-0.291522
236.882567,0.680188,0.738748,-0.291522
236.982567,0.575786,0.119193,-1.403001
237.082567,-0.304657,-0.521373,1.063082
237.182567,-0.912838,0.308721,0.075786
237.282567,0.060547,-0.866797,0.254651
237.382567,0.190895,0.535536,-0.711859
237.482567,0.954863,0.834116,-1.379259
237.582567,0.296775,-0.252407,1.026642
237.682567,0.032487,-0.939387,0.520001
237.782567,0.032487,-0.939387,0.520001
237.882567,0.032487,-0.939387,0.520001
237.982567,0.032487,-0.939387,0.520001
238.082567,0.032487,-0.939387,0.520001
238.182567,0.032487,-0.939387,0.520001
238.282567,0.032487,-0.939387,0.520001
238.382567,0.032487,-0.939387,0.520001
238.482567,0.032487,-0.939387,0.520001
238.582567,0.032487,-0.939387,0.520001
238.682567,0.032487,-0.939387,0.520001
238.782567,0.032487,-0.939387,0.520001
238.882567,0.032487,-0.939387,0.520001
238.982567,0.032487,-0.939387,0.520001
239.082567,-0.749699,-0.329891,0.940066
239.182567,-0.181906,-0.298504,-0.502273
239.282567,1.447848,-0.767088,1.256877
239.382567,0.773500,0.036765,0.997749
239.482567,0.535599,2.979386,-4.929517
239.582567,0.619266,-4.170585,4.499155
239.682567,0.499152,2.602803,-3.464865
239.782567,0.662562,-1.640691,3.678679
239.882567,1.148065,0.455553,-3.354026
239.982567,2.136456,0.641973,0.350349
240.082567,2.136456,0.641973,0.350349
240.182567,2.136456,0.641973,0.350349
240.282567,2.136456,0.641973,0.350349
240.382567,2.136456,0.641973,0.350349
240.482567,2.136456,0.641973,0.350349
240.582567,2.136456,0.641973,0.350349
240.682567,2.136456,0.641973,0.350349
240.782567,2.136456,0.641973,0.350349
240.882567,2.136456,0.641973,0.350349
240.982567,2.136456,0.641973,0.350349
241.082567,2.136456,0.641973,0.350349
241.182567,2.136456,0.641973,0.350349
241.282567,1.709571,-0.546705,0.287299
241.382567,0.826253,-0.334761,0.404330
241.482567,1.578451,-0.060814,-0.959800
241.582567,1.519130,-0.051117,1.177088
241.682567,-0.923832,0.443244,-2.108630
241.782567,-0.579653,-1.368444,0.822985
241.882567,1.258338,0.091803,0.531930
241.982567,1.190912,-0.137281,-1.167187
242.082567,0.360379,-0.021250,1.734048
242.182567,0.360379,-0.021250,1.734048
242.282567,0.360379,-0.021250,1.734048
242.382567,0.360379,-0.021250,1.734048
242.482567,0.360379,-0.021250,1.734048
242.582567,0.360379,-0.021250,1.734048
242.682567,0.360379,-0.021250,1.734048
242.782567,0.360379,-0.021250,1.734048
242.882567,0.360379,-0.021250,1.734048
242.982567,0.360379,-0.021250,1.734048
243.082567,0.360379,-0.021250,1.734048
243.182567,0.360379,-0.021250,1.734048
243.282567,0.360379,-0.021250,1.734048
243.382567,0.360379,-0.021250,1.734048
243.482567,0.418496,-2.703721,1.478589
243.582567,-0.565054,1.429440,-2.998072
243.682567,-0.843051,-2.607742,3.771889
243.782567,0.827988,0.243058,-1.259473
243.882567,-0.390363,0.979975,-0.423775
243.982567,-0.526372,-1.391354,-0.276596
244.082567,-0.280551,-0.394195,-0.448562
244.182567,-0.859103,-0.632090,1.377843
244.282567,-0.668973,-0.621493,-0.247277
244.382567,-0.000974,0.060200,-0.599903
244.482567,-0.343354,0.337032,-0.397804
244.582567,-0.343354,0.337032,-0.397804
244.682567,-0.343354,0.337032,-0.397804
244.782567,-0.343354,0.337032,-0.397804
244.882567,-0.343354,0.337032,-0.397804
244.982567,-0.343354,0.337032,-0.397804
245.082567,-0.343354,0.337032,-0.397804
245.182567,-0.343354,0.337032,-0.397804
245.282567,-0.343354,0.337032,-0.397804
245.382567,-0.343354,0.337032,-0.397804
245.482567,-0.343354,0.337032,-0.397804
245.582567,-0.343354,0.337032,-0.397804
245.682567,0.834856,0.356158,-0.549569
245.782567,0.157488,-0.366566,-0.500783
245.882567,-0.183797,-0.607370,0.911174
245.982567,0.183865,0.140518,-0.943385
246.082567,2.443895,-0.131508,1.325160
246.182567,2.504823,0.934483,-1.258776
246.282567,2.215890,0.052563,-0.321716
246.382567,2.368210,-0.436743,1.943613
246.482567,2.558332,0.683334,-1.871184
246.582567,3.019270,-3.307582,3.375499
246.682567,1.309669,-0.491583,2.128118
246.782567,1.309669,-0.491583,2.128118
246.882567,1.309669,-0.491583,2.128118
246.982567,1.309669,-0.491583,2.128118
247.082567,1.309669,-0.491583,2.128118
247.182567,1.309669,-0.491583,2.128118
247.282567,1.309669,-0.491583,2.128118
247.382567,1.309669,-0.491583,2.128118
247.482567,1.309669,-0.491583,2.128118
247.582567,1.309669,-0.491583,2.128118
247.682567,1.309669,-0.491583,2.128118
247.782567,1.309669,-0.491583,2.128118
247.882567,-0.813200,-1.259172,0.771203
247.982567,-0.670841,0.409984,0.231962
248.082567,0.091614,0.295779,-0.420124
248.182567,0.637851,-0.583975,0.300190
248.282567,-1.091425,0.668208,-0.446092
248.382567,-0.590643,-0.867162,-0.219248
248.482567,-1.451584,-1.561572,1.534387
248.582567,-2.671271,0.397724,-0.972935
248.682567,2.378930,-0.811192,0.507728
248.782567,-0.971866,1.356242,0.312205
248.882567,-0.971866,1.356242,0.312205
248.982567,-0.971866,1.356242,0.312205
249.082567,-0.971866,1.356242,0.312205
249.182567,-0.971866,1.356242,0.312205
249.282567,-0.971866,1.356242,0.312205
249.382567,-0.971866,1.356242,0.312205
249.482567,-0.971866,1.356242,0.312205
249.582567,-0.971866,1.356242,0.312205
249.682567,-0.971866,1.356242,0.312205
249.782567,-0.971866,1.356242,0.312205
249.882567,-0.971866,1.356242,0.312205
249.982567,-0.971866,1.356242,0.312205
250.082567,0.426389,0.115865,-0.800605
250.182567,-0.684763,-0.374694,0.248346
250.282567,-0.694228,0.158380,-0.050307
250.382567,0.323262,-0.177841,-0.056077
250.482567,1.913390,2.133048,-3.725115
250.582567,-4.596129,-0.382565,-2.669751
250.682567,-2.741666,-4.306474,2.698758
250.782567,-1.342794,-9.290237,17.610788
250.882567,1.190481,2.622536,-6.182074
250.982567,-0.066539,0.378029,-2.350808
251.082567,-3.444638,-0.416775,-0.651187
251.182567,-1.382756,4.317369,-5.681160
251.282567,1.333478,3.015184,-2.529929
251.382567,2.300437,-0.112706,-0.539446
251.482567,2.300437,-0.112706,-0.539446
251.582567,-0.061718,2.414800,-3.033268
251.682567,-1.389366,-0.325125,-0.956755
251.782567,0.269415,-0.593329,1.291720
251.882567,-0.255125,-0.367560,0.509478
251.982567,-0.110784,0.085332,-0.759354
252.082567,0.493593,-0.049397,0.651948
252.182567,-0.489172,-0.275519,-0.729619
252.282567,0.399239,-0.573231,0.099803
252.382567,-0.523688,-0.338763,0.429828
252.482567,-0.464158,0.322573,-0.402139
252.582567,-0.464158,0.322573,-0.402139
252.682567,-0.464158,0.322573,-0.402139
252.782567,-0.464158,0.322573,-0.402139
252.882567,-0.464158,0.322573,-0.402139
252.982567,-0.464158,0.322573,-0.402139
253.082567,-0.464158,0.322573,-0.402139
253.182567,-0.464158,0.322573,-0.402139
253.282567,-0.464158,0.322573,-0.402139
253.382567,-0.464158,0.322573,-0.402139
253.482567,-0.464158,0.322573,-0.402139
253.582567,-0.464158,0.322573,-0.402139
253.682567,-0.464158,0.322573,-0.402139
253.782567,-0.107180,-0.037038,-1.640963
253.882567,0.645747,-0.771610,-0.023612
253.982567,0.817150,-0.913255,1.051198
254.082567,0.400701,-0.162276,0.609126
254.182567,-1.981566,-0.747623,-0.732490
254.282567,-0.841637,0.153225,-0.367797
254.382567,-0.040219,0.215059,0.058037
254.482567,1.101308,-0.650461,0.862692
254.582567,0.051267,-0.336199,0.549263
254.682567,0.051267,-0.336199,0.549263
254.782567,0.051267,-0.336199,0.549263
254.882567,0.051267,-0.336199,0.549263
254.982567,0.051267,-0.336199,0.549263
255.082567,0.051267,-0.336199,0.549263
255.182567,0.051267,-0.336199,0.549263
255.282567,0.051267,-0.336199,0.549263
255.382567,-0.413170,0.207389,-0.049843
255.482567,-2.495153,0.767856,-0.279902
255.582567,0.283792,2.853131,-0.565025
255.682567,-0.323103,-3.733928,4.744326
255.782567,-1.444849,-0.486543,3.155155
255.882567,4.698972,-2.617252,2.791527
255.982567,-1.680831,1.509251,-1.230099
256.082567,-0.483111,-2.101891,2.498636
256.182567,0.658072,0.624820,-1.106074
256.282567,2.376981,1.216529,-2.237686
256.382567,-0.640761,2.431921,-2.755491
256.482567,-0.640761,2.431921,-2.755491
256.582567,-0.640761,2.431921,-2.755491
256.682567,-0.640761,2.431921,-2.755491
256.782567,-0.640761,2.431921,-2.755491
256.882567,-0.640761,2.431921,-2.755491
256.982567,0.429164,0.296717,0.139234
257.082567,-0.339797,-0.120719,-0.471786
257.182567,-1.006768,-0.421209,0.717414
257.282567,-0.559149,-0.699861,0.141895
257.382567,-0.438044,0.576530,-0.307068
257.482567,0.306690,0.024656,-0.100290
257.582567,0.773642,0.280993,0.405414
257.682567,0.378984,-0.535420,0.504497
257.782567,-0.376021,-0.332510,0.160358
257.882567,-0.689837,0.461710,-1.145968
257.982567,-0.689837,0.461710,-1.145968
258.082567,-0.689837,0.461710,-1.145968
258.182567,-0.689837,0.461710,-1.145968
258.282567,-0.689837,0.461710,-1.145968
258.382567,-0.689837,0.461710,-1.145968
258.482567,-0.689837,0.461710,-1.145968
258.582567,-0.689837,0.461710,-1.145968
258.682567,-0.689837,0.461710,-1.145968
258.782567,-0.689837,0.461710,-1.145968
258.882567,-0.689837,0.461710,-1.145968
258.982567,-0.689837,0.461710,-1.145968
259.082567,-0.689837,0.461710,-1.145968
259.182567,0.459259,0.485213,-0.009322
259.282567,0.732936,-0.773749,0.821503
259.382567,-1.103040,-0.149132,0.199106
259.482567,-0.642551,0.180441,-0.355943
259.582567,0.257183,0.205018,-0.600394
259.682567,0.535767,-0.972014,0.508630
259.782567,-0.688315,0.152561,0.039207
259.882567,-1.537056,-0.083203,0.067054
259.982567,0.560821,0.270544,-0.289998
260.082567,0.409272,0.167967,-0.040064
260.182567,0.409272,0.167967,-0.040064
260.282567,0.409272,0.167967,-0.040064
260.382567,0.409272,0.167967,-0.040064
260.482567,0.409272,0.167967,-0.040064
260.582567,0.409272,0.167967,-0.040064
260.682567,0.409272,0.167967,-0.040064
260.782567,0.409272,0.167967,-0.040064
260.882567,0.409272,0.167967,-0.040064
260.982567,0.409272,0.167967,-0.040064
261.082567,0.409272,0.167967,-0.040064
261.182567,0.409272,0.167967,-0.040064
261.282567,0.409272,0.167967,-0.040064
261.382567,-1.293980,-0.726567,0.823196
261.482567,-1.130257,-0.145881,-0.101437
261.582567,-0.336014,-0.779121,-0.229166
261.682567,0.548869,0.334553,0.449843
261.782567,1.503896,0.868239,0.146036
261.882567,-0.195378,-0.643138,-0.598074
261.982567,-1.494426,-0.834380,1.075246
262.082567,-0.743086,-0.471960,-0.531802
262.182567,-0.526571,1.099277,-0.534369
262.282567,-0.526571,1.099277,-0.534369
262.382567,-0.526571,1.099277,-0.534369
262.482567,-0.526571,1.099277,-0.534369
262.582567,-0.526571,1.099277,-0.534369
262.682567,-0.526571,1.099277,-0.534369
262.782567,-0.526571,1.099277,-0.534369
262.882567,-0.526571,1.099277,-0.534369
262.982567,-0.526571,1.099277,-0.534369
263.082567,-0.526571,1.099277,-0.534369
263.182567,-0.526571,1.099277,-0.534369
263.282567,-0.526571,1.099277,-0.534369
263.382567,-0.526571,1.099277,-0.534369
263.482567,-0.526571,1.099277,-0.534369
263.582567,-0.520475,0.694000,-0.703566
263.682567,-1.641639,-0.418838,-0.346867
263.782567,0.392636,0.444977,-0.020725
263.882567,1.729131,-2.008099,1.778840
263.982567,1.556275,0.661913,-0.914959
264.082567,0.061524,-0.815671,0.704586
264.182567,-0.560467,0.459091,-0.790081
264.282567,0.258876,-0.561584,0.126737
264.382567,-0.010450,0.063404,-0.312887
264.482567,-0.010450,0.063404,-0.312887
264.582567,-0.010450,0.063404,-0.312887
264.682567,-0.010450,0.063404,-0.312887
264.782567,-0.010450,0.063404,-0.312887
264.882567,-0.010450,0.063404,-0.312887
264.982567,-0.010450,0.063404,-0.312887
265.082567,-0.010450,0.063404,-0.312887
265.182567,-0.010450,0.063404,-0.312887
265.282567,-0.010450,0.063404,-0.312887
265.382567,-0.010450,0.063404,-0.312887
265.482567,-0.010450,0.063404,-0.312887
265.582567,-0.010450,0.063404,-0.312887
265.682567,-0.010450,0.063404,-0.312887
265.782567,0.065039,-1.643989,3.090531
265.882567,0.753340,1.910670,-1.640829
265.982567,-0.655344,-0.792880,-0.055195
266.082567,0.480657,-0.957646,-0.097237
266.182567,0.024839,0.207284,0.902915
266.282567,0.138181,0.395152,-1.034127
266.382567,-0.376856,-0.480387,0.277235
266.482567,0.079073,-0.525319,0.514539
266.582567,0.382849,0.506134,-0.533923
266.682567,-0.142238,-1.182652,1.297249
266.782567,-0.142238,-1.182652,1.297249
266.882567,-0.142238,-1.182652,1.297249
266.982567,-0.142238,-1.182652,1.297249
267.082567,-0.142238,-1.182652,1.297249
267.182567,-0.142238,-1.182652,1.297249
267.282567,-0.142238,-1.182652,1.297249
267.382567,-0.142238,-1.182652,1.297249
267.482567,-0.142238,-1.182652,1.297249
267.582567,-0.142238,-1.182652,1.297249
267.682567,-0.142238,-1.182652,1.297249
267.782567,-0.142238,-1.182652,1.297249
267.882567,0.450926,-0.465900,0.520889
267.982567,-0.170547,0.168128,-0.351230
268.082567,-0.222604,0.237876,-0.109126
268.182567,0.161297,-0.134024,0.304768
268.282567,0.296048,0.638840,-0.748383
268.382567,0.468694,-0.025433,0.571513
268.482567,0.059596,-0.597244,-0.007744
268.582567,0.858189,0.454878,0.229553
268.682567,1.130922,-0.448954,0.635112
268.782567,-0.199876,0.324389,-0.288597
268.882567,-1.924973,-0.298420,0.548735
268.982567,-1.924973,-0.298420,0.548735
269.082567,-1.924973,-0.298420,0.548735
269.182567,-1.924973,-0.298420,0.548735
269.282567,-1.924973,-0.298420,0.548735
269.382567,-1.924973,-0.298420,0.548735
269.482567,-1.924973,-0.298420,0.548735
269.582567,-1.924973,-0.298420,0.548735
269.682567,-1.924973,-0.298420,0.548735
269.782567,-1.924973,-0.298420,0.548735
269.882567,-1.924973,-0.298420,0.548735
269.982567,-1.924973,-0.298420,0.548735
270.082567,0.408750,-0.782137,0.252818
270.182567,-0.739261,0.727642,-1.082010
270.282567,0.560203,-1.159861,1.323156
270.382567,-0.742235,0.711802,-0.456039
270.482567,0.466530,-0.432054,0.510999
270.582567,-0.026369,0.138973,-0.071720
270.682567,0.066588,0.380343,-0.468387
270.782567,-0.663012,-0.754575,0.155546
270.882567,-0.116310,0.192847,0.188965
270.982567,-0.153872,0.247441,-0.053544
271.082567,-0.153872,0.247441,-0.053544
271.182567,-0.153872,0.247441,-0.053544
271.282567,-0.153872,0.247441,-0.053544
271.382567,-0.153872,0.247441,-0.053544
271.482567,-0.153872,0.247441,-0.053544
271.582567,-0.153872,0.247441,-0.053544
271.682567,-0.153872,0.247441,-0.053544
271.782567,-0.153872,0.247441,-0.053544
271.882567,-0.153872,0.247441,-0.053544
271.982567,-0.153872,0.247441,-0.053544
272.082567,-0.153872,0.247441,-0.053544
272.182567,-0.153872,0.247441,-0.053544
272.282567,-0.523766,-0.065133,0.408989
272.382567,-1.306446,-0.136729,-0.355614
272.482567,0.904670,0.198803,0.816008
272.582567,1.825641,-0.523493,-0.473277
272.682567,-0.523900,0.764218,-0.366589
272.782567,-1.377488,0.048221,-0.360805
272.882567,-0.685486,-0.774592,0.926331
272.982567,-0.135176,0.137588,0.358986
273.082567,0.883889,-0.256281,-0.018103
273.182567,1.638226,0.420476,-0.073472
273.282567,1.638226,0.420476,-0.073472
273.382567,1.638226,0.420476,-0.073472
273.482567,1.638226,0.420476,-0.073472
273.582567,1.638226,0.420476,-0.073472
273.682567,1.638226,0.420476,-0.073472
273.782567,1.638226,0.420476,-0.073472
273.882567,1.638226,0.420476,-0.073472
273.982567,1.638226,0.420476,-0.073472
274.082567,1.638226,0.420476,-0.073472
274.182567,1.638226,0.420476,-0.073472
274.282567,1.638226,0.420476,-0.073472
274.382567,1.638226,0.420476,-0.073472
274.482567,-0.337439,0.265092,-0.193782
274.582567,0.033602,-0.603444,0.761638
274.682567,-1.186565,0.523562,-0.632069
274.782567,-0.552904,0.143562,0.008125
274.882567,-0.110685,-0.514704,-0.129359
274.982567,0.518210,0.346479,0.240524
275.082567,0.206112,0.094757,-0.499332
275.182567,0.010197,-0.065670,0.590831
275.282567,0.158022,0.226581,-0.205025
275.382567,0.395543,0.421305,-0.425613
275.482567,0.395543,0.421305,-0.425613
275.582567,0.395543,0.421305,-0.425613
275.682567,0.395543,0.421305,-0.425613
275.782567,0.395543,0.421305,-0.425613
275.882567,0.395543,0.421305,-0.425613
275.982567,0.395543,0.421305,-0.425613
276.082567,0.395543,0.421305,-0.425613
276.182567,0.395543,0.421305,-0.425613
276.282567,0.395543,0.421305,-0.425613
276.382567,0.395543,0.421305,-0.425613
276.482567,0.395543,0.421305,-0.425613
276.582567,0.395543,0.421305,-0.425613
276.682567,0.057220,-0.642166,1.341577
276.782567,0.800740,-0.020864,-0.415382
276.882567,-0.056362,0.936192,0.184494
276.982567,0.277197,0.115561,0.314579
277.082567,-0.490975,-1.624639,0.081104
277.182567,0.657711,1.308640,-0.729848
277.282567,-1.019120,-0.101798,0.020464
277.382567,-0.373913,-0.725130,0.470710
277.482567,-0.373913,-0.725130,0.470710
277.582567,-0.373913,-0.725130,0.470710
277.682567,-0.373913,-0.725130,0.470710
277.782567,-0.373913,-0.725130,0.470710
277.882567,-0.373913,-0.725130,0.470710
277.982567,-0.373913,-0.725130,0.470710
278.082567,-0.373913,-0.725130,0.470710
278.182567,-0.373913,-0.725130,0.470710
278.282567,-0.373913,-0.725130,0.470710
278.382567,-0.373913,-0.725130,0.470710
278.482567,-0.373913,-0.725130,0.470710
278.582567,-0.373913,-0.725130,0.470710
278.682567,-0.373913,-0.725130,0.470710
278.782567,-0.373913,-0.725130,0.470710
278.882567,-0.590829,-0.726816,-0.119625
278.982567,0.405091,-0.204610,0.196055
279.082567,0.868152,0.271709,0.313573
279.182567,-0.036123,-0.770217,0.957652
279.282567,0.284398,1.352464,-1.342196
279.382567,-0.926750,-1.126114,0.661578
279.482567,0.480890,0.038306,-0.325271
279.582567,0.147123,0.242040,0.109423
279.682567,-0.688963,-1.167277,1.240612
279.782567,-0.146605,1.424437,-2.181702
279.882567,0.472222,-1.234063,1.325243
279.982567,0.472222,-1.234063,1.325243
280.082567,0.472222,-1.234063,1.325243
280.182567,0.472222,-1.234063,1.325243
280.282567,0.472222,-1.234063,1.325243
280.382567,0.472222,-1.234063,1.325243
280.482567,0.472222,-1.234063,1.325243
280.582567,0.472222,-1.234063,1.325243
280.682567,0.472222,-1.234063,1.325243
280.782567,0.472222,-1.234063,1.325243
280.882567,0.472222,-1.234063,1.325243
280.982567,0.472222,-1.234063,1.325243
281.082567,-0.935456,0.603158,-1.913120
281.182567,-1.341656,-3.695153,2.710191
281.282567,1.537012,1.606140,-0.516413
281.382567,2.932514,1.954375,-1.533115
281.482567,-1.343872,-2.005133,0.441413
281.582567,-1.084049,2.311509,-2.222598
281.682567,-2.132610,-2.271775,2.134195
281.782567,1.777379,0.554787,-0.820095
281.882567,0.053515,-1.066152,1.632177
281.982567,-0.862805,1.205227,-1.279727
282.082567,-0.862805,1.205227,-1.279727
282.182567,-0.862805,1.205227,-1.279727
282.282567,-0.862805,1.205227,-1.279727
282.382567,-0.862805,1.205227,-1.279727
282.482567,-0.862805,1.205227,-1.279727
282.582567,-0.862805,1.205227,-1.279727
282.682567,-0.862805,1.205227,-1.279727
282.782567,-0.862805,1.205227,-1.279727
282.882567,-0.862805,1.205227,-1.279727
282.982567,-0.862805,1.205227,-1.279727
283.082567,-0.862805,1.205227,-1.279727
283.182567,-0.862805,1.205227,-1.279727
283.282567,0.830293,-0.361997,1.010922
283.382567,0.462398,1.105164,-0.920523
283.482567,-0.127582,-0.562573,0.157119
283.582567,0.218037,-0.452361,0.708561
283.682567,-0.162929,0.613669,-0.733779
283.782567,-1.234295,-0.645670,0.391720
283.882567,0.133841,0.337379,0.117017
283.982567,-0.953290,0.198377,-0.028592
284.082567,0.580814,-0.652148,0.539313
284.182567,-0.654528,0.322323,-0.779780
284.282567,-0.654528,0.322323,-0.779780
284.382567,-0.654528,0.322323,-0.779780
284.482567,-0.654528,0.322323,-0.779780
284.582567,-0.654528,0.322323,-0.779780
284.682567,-0.654528,0.322323,-0.779780
284.782567,-0.654528,0.322323,-0.779780
284.882567,-0.654528,0.322323,-0.779780
284.982567,-0.654528,0.322323,-0.779780
285.082567,-0.654528,0.322323,-0.779780
285.182567,-0.654528,0.322323,-0.779780
285.282567,-0.654528,0.322323,-0.779780
285.382567,-0.654528,0.322323,-0.779780
285.482567,-0.365630,0.229487,-0.147443
285.582567,-0.292825,-0.016833,-0.177330
285.682567,0.442676,-0.334592,0.556102
285.782567,-0.513815,1.039650,-0.775026
285.882567,0.290238,0.515760,-0.447852
285.982567,0.036467,-1.162951,1.690704
286.082567,-0.202789,0.373046,0.144481
286.182567,-0.930054,1.564068,-1.690995
286.282567,-0.843881,-0.888085,0.856732
286.382567,-0.843881,-0.888085,0.856732
286.482567,-0.843881,-0.888085,0.856732
286.582567,-0.843881,-0.888085,0.856732
286.682567,-0.843881,-0.888085,0.856732
286.782567,-0.843881,-0.888085,0.856732
286.882567,-0.843881,-0.888085,0.856732
286.982567,-0.843881,-0.888085,0.856732
287.082567,-0.843881,-0.888085,0.856732
287.182567,-0.843881,-0.888085,0.856732
287.282567,-0.843881,-0.888085,0.856732
287.382567,-0.843881,-0.888085,0.856732
287.482567,-0.843881,-0.888085,0.856732
287.582567,-0.843881,-0.888085,0.856732
287.682567,-0.406739,-0.789967,0.437398
287.782567,-0.058584,-0.781779,0.386786
287.882567,0.046275,0.395938,-0.138927
287.982567,-0.437390,0.269033,-0.002895
288.082567,-0.417369,-0.243854,-0.107312
288.182567,-0.380861,-0.191576,0.742612
288.282567,0.084858,0.772011,-0.477434
288.382567,0.487265,-0.206540,-0.874148
288.482567,-0.132403,-0.692974,1.635875
288.582567,-0.132403,-0.692974,1.635875
288.682567,-0.132403,-0.692974,1.635875
288.782567,-0.132403,-0.692974,1.635875
288.882567,-0.132403,-0.692974,1.635875
288.982567,-0.132403,-0.692974,1.635875
289.082567,-0.132403,-0.692974,1.635875
289.182567,-0.132403,-0.692974,1.635875
289.282567,-0.132403,-0.692974,1.635875
289.382567,-0.132403,-0.692974,1.635875
289.482567,-0.132403,-0.692974,1.635875
289.582567,-0.132403,-0.692974,1.635875
289.682567,-0.132403,-0.692974,1.635875
289.782567,-0.132403,-0.692974,1.635875
289.882567,-0.030958,-0.259444,-0.415665
289.982567,0.528262,-0.213545,0.325473
290.082567,-0.065615,0.237295,0.340949
290.182567,0.135851,-0.382135,-0.193160
290.282567,0.028125,0.217425,0.390842
290.382567,-1.263514,-0.292483,-0.948090
290.482567,-0.696361,-0.491194,0.506875
290.582567,-0.195496,0.422011,0.699077
290.682567,1.363821,-0.049546,-0.141698
290.782567,1.363821,-0.049546,-0.141698
290.882567,1.363821,-0.049546,-0.141698
290.982567,1.363821,-0.049546,-0.141698
291.082567,1.363821,-0.049546,-0.141698
291.182567,1.363821,-0.049546,-0.141698
291.282567,1.363821,-0.049546,-0.141698
291.382567,1.363821,-0.049546,-0.141698
291.482567,1.363821,-0.049546,-0.141698
291.582567,1.363821,-0.049546,-0.141698
291.682567,1.363821,-0.049546,-0.141698
291.782567,1.363821,-0.049546,-0.141698
291.882567,1.363821,-0.049546,-0.141698
291.982567,0.245509,-0.651724,2.894455
292.082567,0.873192,2.779912,-4.123010
292.182567,0.772974,-1.454598,0.520547
292.282567,0.460104,-0.456879,1.297156
292.382567,-0.270841,0.048688,0.654751
292.482567,-0.588418,-0.376658,-1.712449
292.582567,-1.628612,0.736776,0.432266
292.682567,-1.443989,0.439920,-0.118626
292.782567,-1.443989,0.439920,-0.118626
292.882567,-0.956825,0.417244,-0.048392
292.982567,-0.956825,0.417244,-0.048392
293.082567,-0.956825,0.417244,-0.048392
293.182567,-0.956825,0.417244,-0.048392
293.282567,-0.956825,0.417244,-0.048392
293.382567,-0.956825,0.417244,-0.048392
293.482567,-0.956825,0.417244,-0.048392
293.582567,-0.956825,0.417244,-0.048392
293.682567,-0.956825,0.417244,-0.048392
293.782567,-0.956825,0.417244,-0.048392
293.882567,-0.956825,0.417244,-0.048392
293.982567,-0.956825,0.417244,-0.048392
294.082567,-0.956825,0.417244,-0.048392
294.182567,-0.995095,0.242947,-0.416288
294.282567,-0.800882,0.317231,-0.192210
294.382567,0.902485,-0.057640,0.098318
294.482567,-0.425016,0.027273,-0.198320
294.582567,-0.304170,-0.308118,0.816651
294.682567,0.634495,0.991713,-1.120800
294.782567,0.573735,-0.363123,0.808757
294.882567,-0.887193,-0.511265,0.654688
294.982567,0.089032,0.051246,-0.725277
295.082567,0.923122,0.438035,0.276915
295.182567,0.923122,0.438035,0.276915
295.282567,0.923122,0.438035,0.276915
295.382567,0.923122,0.438035,0.276915
295.482567,0.923122,0.438035,0.276915
295.582567,0.923122,0.438035,0.276915
295.682567,0.923122,0.438035,0.276915
295.782567,0.923122,0.438035,0.276915
295.882567,0.923122,0.438035,0.276915
295.982567,0.923122,0.438035,0.276915
296.082567,0.923122,0.438035,0.276915
296.182567,0.923122,0.438035,0.276915
296.282567,0.923122,0.438035,0.276915
296.382567,0.171582,0.612735,-0.173360
296.482567,0.394628,-0.533932,-0.298491
296.582567,-0.320853,0.091469,0.496894
296.682567,-0.336081,0.368215,-0.038485
296.782567,-0.259414,-0.839982,-0.052513
296.882567,0.347667,-0.401910,-0.246204
296.982567,0.082653,0.847517,0.077888
297.082567,-0.830599,-0.033602,-1.183006
297.182567,0.052912,-0.484972,1.394209
297.282567,0.659790,-0.703123,-0.070981
297.382567,0.337144,0.413141,-0.299807
297.482567,-1.582047,0.231201,2.304363
297.582567,-2.184721,3.062676,-4.186190
297.682567,0.987969,3.729187,-3.761284
297.782567,0.363759,0.321598,-4.856832
297.882567,-1.193411,-2.490172,3.419590
297.982567,0.086368,-1.155902,1.948586
298.082567,0.272516,-2.101483,6.434576
298.182567,1.706992,4.980243,-8.047494
298.282567,0.189716,4.238113,-2.850094
298.382567,-0.517237,-5.492449,8.697281
298.482567,-0.517237,-5.492449,8.697281
298.582567,-0.517237,-5.492449,8.697281
298.682567,-0.517237,-5.492449,8.697281
298.782567,-0.517237,-5.492449,8.697281
298.882567,0.933812,-0.038794,-0.835930
298.982567,-0.217662,-0.753235,1.640766
299.082567,-0.290437,-0.556055,-0.327900
299.182567,-0.281519,0.172568,0.076660
299.282567,-0.393981,-0.685030,-0.576164
299.382567,-0.608382,0.535370,0.580193
299.482567,0.312740,0.229088,-0.158179
299.582567,-0.526432,-2.096686,1.642114
299.682567,0.612775,0.262977,-0.461122
299.782567,-0.332272,0.796426,-1.481575
299.882567,-0.332272,0.796426,-1.481575
299.982567,-0.332272,0.796426,-1.481575
300.082567,-0.332272,0.796426,-1.481575
300.182567,-0.332272,0.796426,-1.481575
300.282567,-0.332272,0.796426,-1.481575
300.382567,-0.332272,0.796426,-1.481575
300.482567,-0.332272,0.796426,-1.481575
300.582567,-0.332272,0.796426,-1.481575
300.682567,-0.332272,0.796426,-1.481575
300.782567,-0.332272,0.796426,-1.481575
300.882567,-0.332272,0.796426,-1.481575
300.982567,-0.332272,0.796426,-1.481575
301.082567,0.916403,-1.755067,0.162241
301.182567,0.125964,0.038075,0.650986
301.282567,-0.357139,0.373795,0.241421
301.382567,-1.537298,-0.461598,-0.423683
301.482567,-1.317950,-0.698278,0.131026
301.582567,0.153931,-0.023594,-0.086312
301.682567,-0.249559,-0.528317,0.710523
301.782567,0.652199,0.925792,-1.255790
301.882567,0.652199,0.925792,-1.255790
301.982567,0.652199,0.925792,-1.255790
302.082567,0.652199,0.925792,-1.255790
302.182567,0.652199,0.925792,-1.255790
302.282567,0.652199,0.925792,-1.255790
302.382567,1.228732,0.620444,-0.659041
302.482567,-1.745812,-3.800540,6.798173
302.582567,1.139616,5.424083,-16.040049
302.682567,-2.371898,-4.057000,4.984118
302.782567,-1.487825,-0.586307,-2.868517
302.882567,-2.295372,-10.111354,19.356524
302.982567,2.299718,3.801878,-5.681961
303.082567,0.030389,4.234673,-4.539706
303.182567,-0.449356,-3.920914,3.033203
303.282567,1.404738,-0.576548,0.303951
303.382567,2.561008,0.150201,0.162220
303.482567,1.424144,-0.452527,1.588167
303.582567,0.376615,-1.949282,0.643709
303.682567,-1.423291,-3.017825,2.940286
303.782567,-3.924897,1.172522,-4.628657
303.882567,-1.509821,2.593738,-2.685685
303.982567,-0.134646,-0.317835,0.260120
304.082567,-0.019888,-3.167458,4.795679
304.182567,-1.217147,-0.030145,-1.735928
304.282567,0.307340,0.518622,0.206225
304.382567,-0.831164,1.574649,-2.423793
304.482567,-0.831164,1.574649,-2.423793
304.582567,-0.831164,1.574649,-2.423793
304.682567,-0.831164,1.574649,-2.423793
304.782567,-0.831164,1.574649,-2.423793
304.882567,-0.831164,1.574649,-2.423793
304.982567,-0.831164,1.574649,-2.423793
305.082567,-1.381235,1.102741,-0.215845
305.182567,-0.525413,-0.985238,-0.349719
305.282567,-0.788655,0.256337,0.062708
305.382567,1.065879,-0.480680,0.321844
305.482567,0.048664,0.580093,-0.630263
305.582567,0.687145,-1.392916,1.620667
305.682567,-0.253021,-0.073587,-0.558232
305.782567,1.138344,0.940264,-0.489089
305.882567,0.135122,-0.570791,-0.517573
305.982567,-0.395132,-0.878707,0.630983
306.082567,-1.084120,1.022940,-0.710329
306.182567,-0.916692,0.068117,-0.146822
