"Time (s)","Acceleration x (m/s^2)","Acceleration y (m/s^2)","Acceleration z (m/s^2)"
6.746669000E-2,2.642600238E-1,-4.002805799E-2,9.892617226E0
1.477983970E-1,2.439841181E-1,1.480664164E-1,9.748665810E0
2.477983970E-1,1.184381619E-1,8.604162186E-2,9.811887741E0
3.477983970E-1,9.157821536E-2,3.187280893E-2,9.780838013E0
4.477983970E-1,9.299977124E-2,-5.027823523E-2,9.817573547E0
5.477983970E-1,1.236006618E-1,3.374328092E-2,9.805603027E0
6.477983970E-1,1.666214764E-1,6.112696230E-2,9.804106712E0
7.477983970E-1,1.212064624E-1,1.496376097E-2,9.815179825E0
8.477983970E-1,6.860884279E-2,7.773673534E-2,9.800664902E0
9.477983970E-1,1.117792949E-1,6.935703009E-2,9.806724548E0
1.047798397E0,1.011550203E-1,6.771101803E-2,9.790339470E0
1.147798397E0,1.131260321E-1,6.786065549E-2,9.803133965E0
1.247798397E0,1.075146198E-1,7.796119153E-2,9.790863037E0
1.347798397E0,7.751227915E-2,4.391863570E-2,9.815703392E0
1.447798397E0,9.569324553E-2,1.105821878E-1,9.802161217E0
1.547798397E0,1.298106164E-1,5.140051618E-2,9.810465813E0
1.647798397E0,1.045218706E-1,1.488894224E-1,9.815104485E0
1.747798397E0,1.636287272E-1,1.938555241E-1,9.799991608E0
1.847798397E0,-1.254711300E-1,6.165069342E-2,9.774777412E0
1.947798397E0,9.210194647E-2,1.032499503E-2,9.832761765E0
2.047798397E0,2.315641940E-1,6.404489279E-2,9.794155121E0
2.147798397E0,1.303343624E-1,3.052607179E-2,9.815628052E0
2.247798397E0,5.289689451E-2,1.097591817E-1,9.809718132E0
2.347798397E0,1.227028370E-1,1.532289088E-1,9.766771317E0
2.447798397E0,8.678980917E-2,1.149216816E-1,9.795726776E0
2.547798397E0,7.930792868E-3,5.297171324E-2,9.792808533E0
2.647798397E0,1.318307370E-1,6.464344263E-2,9.798645020E0
2.747798397E0,2.094178349E-1,7.369652390E-2,9.792734146E0
2.847798397E0,1.309329122E-1,3.104980290E-2,9.812860489E0
2.947798397E0,7.032967359E-2,3.037643433E-2,9.783007622E0
3.047798397E0,1.857750863E-1,9.591770917E-2,9.788469315E0
3.147798397E0,1.343745738E-1,4.182371125E-2,9.807473183E0
3.247798397E0,8.177695423E-2,7.900865376E-2,9.788319588E0
3.347798397E0,9.614216536E-2,7.758709788E-2,9.796324730E0
3.447798397E0,7.324761152E-2,7.055412978E-2,9.806126595E0
3.547798397E0,-4.825812951E-2,9.958382696E-2,9.794380188E0
3.647798397E0,1.034744084E-1,6.613982469E-2,9.813010216E0
3.747798397E0,2.369511425E-1,1.230021119E-1,9.777096748E0
3.847798397E0,1.354220323E-2,1.336263865E-1,9.776722908E0
4.111887847E0,3.645172119E-1,-1.734299809E-1,9.973047256E0
4.211887847E0,1.571194828E-1,6.217442453E-2,9.778966904E0
4.311887847E0,-2.515408099E-1,1.574935764E-1,9.799692154E0
4.411887847E0,1.414075345E-1,1.698386818E-1,9.659630775E0
4.511887847E0,1.313070059E-1,1.196352690E-1,9.744400978E0
4.611887847E0,-8.693944663E-2,9.971101880E-1,9.343072891E0
4.711887847E0,-1.287631541E-1,-5.271732807E-1,1.049266338E1
4.811887847E0,1.037736833E-1,-4.342483282E-1,1.027351952E1
4.911887847E0,1.230769306E-1,-2.160767019E-1,1.005826569E1
5.011887847E0,7.908347249E-2,-1.234510262E-2,9.943120003E0
5.111887847E0,7.496844232E-2,7.047931105E-2,9.814431190E0
5.211887847E0,4.040215537E-2,9.112930298E-2,9.763180733E0
5.311887847E0,1.169417873E-1,1.025765762E-1,9.807473183E0
5.411887847E0,9.142857790E-2,5.633855984E-2,9.790713310E0
5.511887847E0,5.910685286E-3,1.090858132E-1,9.779865265E0
5.611887847E0,1.002571918E-2,1.613841653E-1,9.794230461E0
5.711887847E0,3.516483679E-2,1.540519148E-1,9.782184601E0
5.811887847E0,3.558382273E0,-5.597943068E-1,9.235333443E0
5.911887847E0,2.362703085E0,-6.883329712E-3,9.208024979E0
6.011887847E0,-1.819967389E0,-1.398363411E-1,9.541716576E0
6.111887847E0,-7.900117636E-1,-2.087444663E-1,1.103839207E1
6.211887847E0,5.214870721E-2,-6.217442751E-1,1.036614513E1
6.311887847E0,3.088520169E-1,2.615665495E-1,9.364620209E0
6.411887847E0,1.861192584E0,3.064578176E-1,8.233136177E0
6.511887847E0,-4.896142483E-1,6.028898954E-1,9.392453194E0
6.611887847E0,2.434005260E0,-1.785625577E0,1.082575703E1
6.711887847E0,-6.107459068E-1,-1.356838942E0,9.556231499E0
6.811887847E0,-1.738040805E0,-1.237203717E0,9.468469620E0
6.911887847E0,-7.958924770E0,-1.998485088E0,8.969202995E0
7.011887847E0,-5.948543549E0,-2.671031356E-1,9.216629028E0
7.111887847E0,-4.588188171E0,-2.919429779E0,1.034542084E1
7.211887847E0,-5.768305302E0,-2.664297581E0,1.016839886E1
7.311887847E0,-6.332813263E0,1.998485088E0,8.840515137E0
7.411887847E0,-1.153653526E1,-8.883834839E0,1.113071823E1
7.511887847E0,-2.140341520E0,3.604096651E0,5.188683987E0
7.611887847E0,-2.676717520E0,-1.269899487E0,7.919121265E0
7.711887847E0,-4.773738861E0,-8.481459618E-1,7.431826591E0
7.811887847E0,-2.360682964E0,5.001636744E-1,1.049423504E1
7.911887847E0,-2.868103981E0,-3.607239008E0,9.917531967E0
8.011887847E0,-4.346224308E0,-4.010512352E0,1.004569626E1
8.111887847E0,-2.520121813E0,-1.961075664E0,9.825130463E0
8.211887847E0,-3.711611271E0,-2.696394920E0,1.032993317E1
8.311887847E0,-3.405602217E0,-2.084676266E0,8.554781914E0
8.411887847E0,-7.206547260E-1,-4.768950641E-1,7.284657955E0
8.511887847E0,-2.674622536E0,-4.472668171E-1,7.363142967E0
8.611887847E0,-2.387243509E0,-4.290484428E0,9.069684982E0
8.711887847E0,-3.067645788E0,-2.078391552E0,7.875352383E0
8.811887847E0,-3.704802752E0,-1.549422622E0,1.137470245E1
8.911887847E0,-9.033622146E-1,1.932195544E0,6.105139732E0
9.011887847E0,-2.397119522E0,-2.440289974E0,7.442749977E0
9.111887847E0,-3.715127707E0,-1.463455796E0,9.912294388E0
9.211887847E0,-4.507907867E0,-6.075286865E-1,8.203507423E0
9.311887847E0,-3.557409525E0,1.338508427E-1,1.026454163E1
9.411887847E0,-3.851148367E0,-2.690558910E0,1.012433052E1
9.511887847E0,-8.405069351E0,-3.646818161E0,1.007577324E1
9.611887847E0,2.602197886E0,2.568529606E0,5.553350925E0
9.711887847E0,-3.368866205E0,4.474164546E-1,9.584363937E0
9.811887847E0,-5.519382954E-1,-3.081936121E0,1.417801380E1
9.911887847E0,-1.146209145E1,4.592153549E0,-2.981454372E0
1.001188785E1,-5.312883258E-1,-3.747225046E0,1.201410389E1
1.011188785E1,1.235333204E0,-3.725228310E-1,7.187542915E0
1.021188785E1,-1.931148171E0,3.480570614E-1,8.551415443E0
1.031188785E1,5.297844410E0,-3.959037066E0,7.510236740E0
1.041188785E1,2.333598435E-1,-3.286565542E0,1.334498119E1
1.051188785E1,-4.866289616E0,9.265560508E-1,5.558588028E0
1.061188785E1,1.136497632E-1,-2.902745008E0,7.400028706E0
1.071188785E1,-3.094430923E0,-5.472247124E0,1.515043354E1
1.081188785E1,7.206622124E0,-1.784578085E0,1.228973675E1
1.091188785E1,4.452541828E0,-8.020575345E-2,1.101594639E1
1.101188785E1,1.810166121E0,2.703203261E-1,8.541314125E0
1.111188785E1,-9.231144190E-1,-7.946504951E-1,1.014527988E1
1.121188785E1,-2.128145933E0,2.066420555E0,6.564601898E0
1.131188785E1,-5.949666023E0,1.015665293E0,7.150657654E0
1.141188785E1,-6.564975739E0,9.189993739E-1,7.283909798E0
1.151188785E1,-2.755501747E0,-4.281580925E0,1.301757431E1
1.161188785E1,-1.621622682E0,1.065569401E0,9.220893860E0
1.171188785E1,-1.093327165E0,-1.047163963E0,9.545457840E0
1.181188785E1,2.576759458E-1,-5.225644588E0,9.454104424E0
1.191188785E1,-1.608604193E-2,6.294506192E-1,5.749151707E0
1.201188785E1,3.010110140E0,3.343951702E0,6.898368359E0
1.211188785E1,3.698443174E0,3.133486271E0,5.876867294E0
1.221188785E1,1.089286923E0,1.563264132E0,1.292023468E1
1.231188785E1,1.190591574E0,5.013607740E-1,1.079141521E1
1.241188785E1,-9.941922426E-1,-5.525368452E-1,1.027344513E1
1.251188785E1,-1.382576704E0,3.730615139E0,6.118681908E0
1.261188785E1,-3.108047962E0,1.365742445E0,1.175149059E1
1.271188785E1,-2.268206835E0,-2.564788461E-1,1.127272415E1
1.281188785E1,4.352209866E-1,2.208651066E0,3.758522511E0
1.291188785E1,-8.897452354E-1,-3.837456405E-1,1.355222893E1
1.301188785E1,-4.982184172E-1,-3.789123535E0,1.353644276E1
1.311188785E1,-2.246958256E0,1.503109813E0,4.522871494E0
1.321188785E1,-4.874744415E0,-4.198457241E0,1.593999672E1
1.331188785E1,-2.089240313E0,1.885882735E0,1.368503284E1
1.341188785E1,-3.142389655E-2,7.885153890E-1,7.770381451E0
1.351188785E1,8.303390741E-1,-1.073649824E-1,8.936283112E0
1.361188785E1,-1.282843232E0,1.230619669E0,8.314239502E0
1.371188785E1,-4.783689976E0,4.433088779E0,3.882946253E0
1.381188785E1,-3.455132246E-1,-4.870629311E0,8.135946274E0
1.391188785E1,1.830816120E-1,-8.528595567E-1,1.225202751E1
1.401188785E1,-9.651625529E-3,-3.709516227E-1,7.124096870E0
1.411188785E1,-2.934169054E0,2.918157816E0,6.862605095E0
1.421188785E1,-3.064652920E0,1.823334217E0,9.937358856E0
1.431188785E1,7.642740607E-1,-2.242543936E0,1.052767944E1
1.441188785E1,1.788767934E0,3.740940010E-4,1.079717636E1
1.451188785E1,-5.294926763E-1,-2.956614733E0,1.505997753E1
1.461188785E1,4.694131613E-1,1.321823835E0,1.314132404E1
1.471188785E1,-2.905962169E-1,5.946598649E-1,7.152527809E0
1.481188785E1,-2.397942543E0,1.872714639E0,1.107924366E1
1.491188785E1,-3.167977810E0,1.203460455E0,6.989647388E0
1.501188785E1,1.138966680E0,1.728763223E0,6.124143600E0
1.511188785E1,-1.383025527E0,-2.028861523E0,1.071248150E1
1.521188785E1,-4.165686607E0,-5.488034248E0,1.038455105E1
1.531188785E1,-3.147028446E0,-4.403086603E-1,9.553688049E0
1.541188785E1,1.295337915E0,1.634416699E0,2.194659948E0
1.551188785E1,1.737142920E0,2.751910448E0,8.707561493E0
1.561188785E1,5.820902810E-2,1.481262684E0,7.928698063E0
1.571188785E1,-1.774327874E0,-4.011784196E-1,6.501379967E0
1.581188785E1,-2.701332808E0,3.937937975E0,7.857321262E0
1.591188785E1,1.583165824E-1,1.603366971E0,1.261198139E1
1.601188785E1,-1.219097614E0,2.285041094E0,1.304997063E1
1.611188785E1,-2.234239101E0,5.717653036E-1,6.000842094E0
1.621188785E1,-2.569951057E0,1.486948848E0,9.940575600E0
1.631188785E1,-1.269899487E0,2.228852212E-1,6.254851818E0
1.641188785E1,-3.408071280E0,-4.433088779E0,1.526221275E1
1.651188785E1,-2.080710977E-1,-1.003320143E-1,9.473482132E0
1.661188785E1,5.821052551E0,5.273378849E0,2.169820070E0
1.671188785E1,1.719635367E0,6.539013863E0,-3.127425909E-2
1.681188785E1,-5.188160419E0,-1.678260565E0,1.397084045E1
1.691188785E1,-6.125116348E0,1.139191151E0,1.133572197E1
1.701188785E1,-4.420444489E0,1.651400566E0,9.373075485E0
1.711188785E1,7.158663273E-1,7.930045128E-1,8.481833458E0
1.721188785E1,1.232041240E0,-2.612971783E0,1.174213791E1
1.731188785E1,-1.468767881E0,5.654954910E0,2.222941399E0
1.741188785E1,3.752163053E-1,5.257068157E0,5.073388100E0
1.751188785E1,-4.181996822E0,4.367921650E-1,8.102203369E0
1.761188785E1,-7.572411299E-1,2.406097889E0,1.275211692E0
1.771188785E1,-8.140285611E-1,9.376217842E0,1.039382815E0
1.781188785E1,1.374197006E0,-1.543437123E0,8.123376846E0
1.791188785E1,-3.380313516E-1,-2.277334690E0,9.370680809E0
1.801188785E1,-5.781922340E0,2.691905737E0,1.476197433E1
1.811188785E1,2.521692991E0,1.048959643E-1,3.883320332E0
1.821188785E1,7.115941525E0,1.919850540E1,-2.224213362E0
1.831188785E1,9.784802794E-1,-4.197783947E0,1.022219372E1
1.841188785E1,-7.451952994E-2,-3.850549698E0,1.935914040E1
1.851188785E1,-1.836053371E0,7.821782112E0,-3.353378773E-1
1.861188785E1,1.593640447E-2,7.989152074E-1,3.063006878E0
1.871188785E1,-6.890961170E0,-5.520205975E0,1.119955158E1
1.881188785E1,-3.707645893E0,4.446032524E0,8.484152794E0
1.891188785E1,-3.320009470E0,7.141454816E-1,1.418534565E1
1.901188785E1,1.041141033E1,2.691456795E0,7.048754215E0
1.911188785E1,2.470666409E0,3.218704939E0,4.886790276E0
1.921188785E1,-2.176478952E-1,1.644666910E0,1.125858402E1
1.931188785E1,2.516006708E0,7.279570103E0,-2.760664225E0
1.941188785E1,-1.194407344E0,7.828889847E0,8.381950259E-1
1.951188785E1,-7.327678680E0,6.274978161E0,4.764461517E0
1.961188785E1,-8.297704697E0,1.665017605E0,8.669928551E0
1.971188785E1,-6.330942631E0,-5.967473030E0,2.104166603E1
1.981188785E1,-1.123778462E0,2.080486536E0,1.094142723E1
1.991188785E1,-1.748739839E0,2.727092934E1,-2.342576683E-1
2.001188785E1,9.573814273E-1,-9.041777611E0,1.664000130E1
2.011188785E1,-4.068421841E0,1.043542767E1,7.647229671E0
2.021188785E1,-4.746280193E0,-2.922796488E0,8.412700653E0
2.031188785E1,-2.540247917E0,-7.839364529E0,1.572833443E1
2.041188785E1,1.492635161E-1,8.060528755E0,9.478120804E0
2.051188785E1,-2.772635221E0,-1.166582298E1,2.162225914E1
2.061188785E1,8.186598778E0,-1.004876423E1,1.479190159E1
2.071188785E1,-3.317615271E0,-6.827140808E0,1.342346573E1
2.081188785E1,5.416881442E-1,-5.612158179E-1,8.042273521E0
2.091188785E1,-3.007790804E0,-5.848585963E-1,1.477521706E1
2.101188785E1,7.502081394E-1,-5.117830753E0,1.021306610E1
2.111188785E1,2.743605614E0,-1.310226917E1,1.721812630E1
2.121188785E1,3.791068792E-1,-9.785326958E0,1.641487122E1
2.131188785E1,-2.925190687E0,-3.725751877E0,1.922102547E1
2.141188785E1,-2.999710321E0,1.165931320E1,-3.249904394E0
2.151188785E1,-1.213935137E0,8.892663956E0,-2.255487680E0
2.161188785E1,1.492485523E0,-4.737452030E0,1.778749657E1
2.171188785E1,-2.687267065E0,5.348796248E-1,1.766868401E1
2.181188785E1,4.648941040E0,-8.727687836E0,1.235842037E1
2.191188785E1,2.904615641E0,-2.366069794E0,7.574356556E0
2.201188785E1,-3.085826635E0,4.012831688E0,3.858031511E0
2.211188785E1,-2.731185675E0,6.677578092E-1,7.746589184E0
2.221188785E1,2.553266525E0,-1.132457376E0,2.499845743E0
2.231188785E1,-2.591573715E0,3.707196951E0,1.373149514E0
2.241188785E1,-1.787944913E0,1.084782887E1,-3.654000759E0
2.251188785E1,-1.681103706E0,7.070376724E-2,-1.379808331E1
2.261188785E1,2.291475534E0,-1.187464142E1,3.060470581E1
2.271188785E1,-5.700594425E0,7.403245926E0,1.282850647E1
2.281188785E1,-3.996072292E0,-1.018755245E1,1.726369095E1
2.291188785E1,-3.715127707E0,9.794230461E0,-8.661922455E0
2.301188785E1,-2.888305187E0,4.056675434E0,7.074940681E0
2.311188785E1,-2.997016907E0,-5.207089424E0,1.748380661E1
2.321188785E1,5.865045786E-1,9.181539536E0,6.852878571E0
2.331188785E1,-2.474632025E0,-8.385168076E0,4.722862244E0
2.341188785E1,-4.021585464E0,3.623279953E1,-1.911455727E1
2.351188785E1,4.416703701E0,1.128499508E1,2.214965820E1
2.361188785E1,1.490615010E0,3.661161041E1,-9.898153305E0
2.371188785E1,-3.124433160E-1,-4.689567566E0,1.835821533E1
2.381188785E1,1.487996340E0,-5.073537827E0,9.079112053E0
2.391188785E1,-9.501988068E-3,7.595305443E0,9.584214211E0
2.401188785E1,1.974393368E0,-9.015516281E0,1.347703648E1
2.411188785E1,-3.452887774E0,3.186233521E0,5.002385139E0
2.421188785E1,-6.359673023E0,1.006574726E1,4.191424370E0
2.431188785E1,-3.807528973E0,5.580435276E0,5.601384640E0
2.441188785E1,-1.313444138E0,7.623288035E-1,1.143268681E1
2.451188785E1,7.283610702E-1,8.035539627E0,1.030554175E0
2.461188785E1,7.162404060E-1,8.822484016E0,4.288389206E0
2.471188785E1,-1.236081481E0,-1.205106497E0,1.419148064E1
2.481188785E1,2.123208046E0,1.228524804E0,3.088968992E0
2.491188785E1,-6.664783955E0,-1.611522198E0,1.162048244E1
2.501188785E1,-9.953893423E-1,5.651063919E-1,8.617554665E0
2.511188785E1,2.808099270E0,-3.160196543E0,6.219238281E0
2.521188785E1,1.832911015E0,-1.656637907E0,9.244312286E0
2.531188785E1,-3.541398525E0,-5.071966648E-1,1.381200027E1
2.541188785E1,-1.086443782E0,-1.224260092E0,8.804302216E0
2.551188785E1,2.217479706E0,3.838578701E0,-1.092130065E0
2.561188785E1,2.849848270E-1,4.129249573E0,5.309890270E0
2.571188785E1,-1.078064084E0,-2.832340717E0,1.342137146E1
2.581188785E1,-2.686818123E0,-5.645826817E0,2.118606567E1
2.591188785E1,-8.297405243E-1,3.724031210E0,1.037055969E1
2.601188785E1,-3.595417500E0,6.573131084E0,7.801132202E0
2.611188785E1,-3.123236179E0,-3.652579069E0,2.153816414E1
2.621188785E1,-2.795679331E0,-1.448491961E-1,9.277681351E0
2.631188785E1,-2.091933727E0,1.678485036E0,9.372551918E0
2.641188785E1,7.494599223E-1,5.055282116E0,1.846602917E0
2.651188785E1,-3.831994534E0,-5.738377571E0,1.428358269E1
2.661188785E1,-1.970053911E0,-5.178957462E0,2.105438614E1
2.671188785E1,7.082347870E-1,2.939331532E0,1.136422825E1
2.681188785E1,-1.526378393E0,2.245611668E0,1.123000336E1
2.691188785E1,1.363797188E0,-1.378087521E0,5.469927788E0
2.701188785E1,1.208622932E0,5.119252205E0,5.183297157E0
2.711188785E1,-2.789170265E0,-5.654805183E0,1.374533653E1
2.721188785E1,-7.205799222E-1,3.051784277E0,6.836942196E0
2.731188785E1,-1.391031146E0,6.915277481E0,3.317390919E0
2.741188785E1,4.739397049E0,-3.892373323E0,8.980575562E0
2.751188785E1,2.795454979E0,3.282899380E0,5.421220779E0
2.761188785E1,-2.453308553E-1,4.013206005E0,1.264677238E1
2.771188785E1,-3.292775452E-1,-2.021903276E0,7.931541443E0
2.781188785E1,4.981435835E-1,3.737199306E-1,1.355679321E1
2.791188785E1,-6.835445762E-1,1.588852048E0,1.091142464E1
2.801188785E1,-8.866028190E-1,-2.420463085E0,1.270116520E1
2.811188785E1,-2.630254984E0,-2.004395723E-1,9.948506355E0
2.821188785E1,-1.846453190E0,5.745859623E0,8.233136177E0
2.831188785E1,3.407996595E-1,1.803956151E0,1.225531960E1
2.841188785E1,-2.217629254E-1,1.231367826E0,9.498920441E0
2.851188785E1,-4.654327869E0,-2.255113602E0,2.255525017E1
2.861188785E1,-3.250128925E-1,9.821464419E-1,1.071143436E1
2.871188785E1,-9.831190854E-2,8.781408310E0,3.246313095E0
2.881188785E1,8.972271085E-1,1.236163712E1,3.593547106E0
2.891188785E1,5.509656668E-1,-3.449520826E0,4.132018089E0
2.901188785E1,-1.303717613E0,-5.180154800E0,1.165736771E1
2.911188785E1,-1.279401541E0,2.351554930E-1,7.110404968E0
2.921188785E1,-2.204311609E0,5.710694790E0,6.270563602E-1
2.931188785E1,-3.029039145E0,5.816413760E-1,1.289876175E1
2.941188785E1,-3.368716717E0,-1.317559183E-1,7.952341080E0
2.951188785E1,-4.659640312E0,1.076792240E0,2.990357876E0
2.961188785E1,-3.292176962E0,-2.070760012E0,1.407431507E1
2.971188785E1,-9.780313969E-1,-2.763507366E0,7.582362175E0
2.981188785E1,-3.601777256E-1,3.269881010E0,1.610549569E0
2.991188785E1,-9.906607628E0,9.604265213E0,9.109937549E-1
3.001188785E1,5.752069354E-1,6.416460514E0,2.893916368E0
3.011188785E1,-6.359598041E-1,1.044994235E0,1.100906277E1
3.021188785E1,3.126677871E-1,-2.616338730E0,1.428889465E1
3.031188785E1,1.717091560E0,1.030202579E1,2.044573545E0
3.041188785E1,-2.516305923E0,3.279158592E0,2.045508575E1
3.051188785E1,7.880664468E-1,1.787795305E0,5.150451660E0
3.061188785E1,1.177872419E0,1.920299411E0,5.844994545E0
3.071188785E1,-4.204367638E0,-1.168594837E0,6.846518993E0
3.081188785E1,-7.197793484E0,-3.175235271E0,1.870731926E1
3.091188785E1,-1.179069519E0,-3.158849955E0,1.750872231E1
3.101188785E1,1.575683951E0,5.442618847E0,4.171298027E0
3.111188785E1,2.452934504E0,-3.652803659E0,1.202353096E1
3.121188785E1,1.207126617E0,-6.515969634E-1,1.475090122E1
3.131188785E1,-4.709843695E-1,1.799242616E0,1.137560081E1
3.141188785E1,1.634042710E-1,4.893448830E0,1.842637539E0
3.151188785E1,-6.733692169E0,1.075033951E1,-6.435240269E0
3.161188785E1,-5.663783550E-1,2.222717047E0,8.926406860E0
3.171188785E1,-7.743596554E0,-1.411157489E0,1.220818424E1
3.181188785E1,2.843937635E0,3.524638891E0,-2.111461401E0
3.191188785E1,-2.001777172E0,5.669843674E0,1.239964581E1
3.201188785E1,1.046191335E0,-2.165929556E0,1.219314575E1
3.211188785E1,-1.646088481E0,3.476231337E0,8.251017570E0
3.221188785E1,-2.405424595E0,3.865887642E0,5.836165905E0
3.231188785E1,2.910451405E-2,-5.875520706E-1,9.457620621E0
3.241188785E1,-3.410989344E-1,3.188253641E0,1.221521664E1
3.251188785E1,-1.322048306E-1,2.570474863E0,1.590348434E1
3.261188785E1,-1.914762855E0,6.333711147E0,1.409735918E0
3.271188785E1,-1.959803700E0,-1.746944189E0,6.533627033E0
3.281188785E1,-2.437147617E0,-3.575889826E0,1.416252613E1
3.291188785E1,3.067570925E-1,-3.117774248E0,1.490674877E1
3.301188785E1,2.179696083E0,5.776759982E-1,8.201936722E0
3.311188785E1,1.272667885E0,4.021585464E0,-4.526687145E0
3.321188785E1,2.718915343E-1,-2.586560726E0,1.080667782E1
3.331188785E1,-5.645826817E0,-3.050138235E0,1.595428658E1
3.341188785E1,7.214028835E-1,-1.902395248E1,2.506893730E1
3.351188785E1,-9.479542077E-2,-3.339088440E0,1.229377651E1
3.361188785E1,2.384400368E0,1.477521777E0,1.023169613E1
3.371188785E1,-2.019958019E0,-1.039008737E0,1.256484509E1
3.381188785E1,1.226280183E-1,-5.855319500E-1,1.149643326E1
3.391188785E1,-1.508197427E0,-2.310479403E0,1.206947041E1
3.401188785E1,8.230816722E-1,6.155941486E0,8.795773506E0
3.411188785E1,-3.168576360E-1,6.828712225E-1,8.301071167E0
3.421188785E1,-1.546654344E0,2.692204952E0,8.410231590E0
3.431188785E1,-2.924143314E0,6.144120097E-1,1.157506752E1
3.441188785E1,-3.019387722E0,3.045274973E0,1.019406223E1
3.451188785E1,-1.319279909E0,1.672574401E0,1.017550659E1
3.461188785E1,-9.171288610E-1,-1.548674464E0,1.109832191E1
3.471188785E1,-3.008763313E0,-2.509048462E0,1.450085640E1
3.481188785E1,-2.520869970E0,-2.533439398E0,1.186162376E1
3.491188785E1,-2.651952505E0,1.266158581E0,1.227402496E1
3.501188785E1,-1.453953743E0,6.251111031E-1,6.008024693E0
3.511188785E1,-8.128314614E-1,2.832116127E0,7.814449787E0
3.521188785E1,1.510142684E0,1.146373749E0,3.841721058E0
3.531188785E1,2.480093718E0,-2.088267565E0,9.935712814E0
3.541188785E1,-2.432808161E0,7.668927312E-1,6.192452908E0
3.551188785E1,1.314341903E0,5.853448868E0,-7.015010715E-1
3.561188785E1,-5.194669366E-1,9.547851562E0,4.944550037E0
3.571188785E1,-3.824961662E0,-3.493215084E0,1.365892029E1
3.581188785E1,5.122095346E-1,-1.088239551E0,1.719605446E1
3.591188785E1,8.490961075E0,6.960692406E0,6.270114899E0
3.601188785E1,5.607295036E0,-1.236829638E0,6.640991688E0
3.611188785E1,-4.309638023E0,-1.490315795E0,1.781749916E1
3.621188785E1,-2.245611668E0,-1.734000564E0,1.121062469E1
3.631188785E1,-1.674594402E0,-1.486874104E0,1.080937195E1
3.641188785E1,1.047538042E0,2.141388893E0,1.426682377E1
3.651188785E1,2.097245932E0,2.293944597E0,6.681842804E0
3.661188785E1,4.370989323E0,1.431283712E0,3.291204214E0
3.671188785E1,5.404835701E0,6.010418892E0,-3.323226690E0
3.681188785E1,4.512321949E-1,2.036867142E0,1.088995171E1
3.691188785E1,-2.511816740E0,-5.689221621E-1,1.419589520E1
3.701188785E1,-1.710956335E0,8.814777374E0,-6.036530495E0
3.711188785E1,-2.894140959E0,2.717867851E0,9.898901939E0
3.721188785E1,-4.486883640E0,2.320654869E0,9.183409691E0
3.731188785E1,3.170147419E0,-8.228871346E0,9.262642860E0
3.741188785E1,3.589955807E0,5.196764469E0,1.418856335E1
3.751188785E1,4.169502258E0,-3.220201433E-1,8.886977196E0
3.761188785E1,3.189824820E0,1.912218928E0,1.258586979E1
3.771188785E1,9.860370159E-1,-2.561646223E0,2.058190536E1
3.781188785E1,2.550872326E0,-1.869123340E0,1.121893024E1
3.791188785E1,6.335207462E0,3.959186554E0,-1.120665932E1
3.801188785E1,2.902819872E0,-6.988599777E0,5.061417103E0
3.811188785E1,3.768623173E-1,3.667692661E0,-5.734113216E0
3.821188785E1,6.280290484E-1,4.909460068E0,-2.897956610E0
3.831188785E1,-7.784597397E0,1.148580837E1,-1.124002934E0
3.841188785E1,-4.173916340E0,-2.286313057E0,1.050268936E1
3.851188785E1,-5.381492138E0,-4.075380266E-1,1.909518051E1
3.861188785E1,4.302081108E0,3.363554001E0,5.136236191E0
3.871188785E1,2.561795712E-1,-2.728866100E0,6.407706738E0
3.881188785E1,-3.040785789E0,2.248903513E0,1.909024239E1
3.891188785E1,-4.551901340E0,5.299415588E-1,1.187823296E1
3.901188785E1,-4.918588102E-1,-3.268085420E-1,1.186603737E1
3.911188785E1,-1.288903475E0,2.743381023E0,1.688952255E1
3.921188785E1,4.164040565E0,1.602543950E0,1.225778866E1
3.931188785E1,-2.161889315E0,2.711358547E0,3.263820648E0
3.941188785E1,-1.850418687E0,-2.422857285E0,1.634334373E1
3.951188785E1,1.954267174E-1,1.861865878E0,1.945812583E0
3.961188785E1,-2.988337755E0,1.812485456E0,1.234637451E1
3.971188785E1,-1.118391514E0,-4.015300751E0,1.972343445E1
3.981188785E1,2.092457533E0,-2.897208452E0,1.097300053E1
3.991188785E1,-2.239326835E-1,3.657966137E0,3.072434187E0
4.001188785E1,-3.220126390E0,-2.477100849E0,1.390066051E1
4.011188785E1,-3.698891878E0,2.827552319E0,1.295165825E1
4.021188785E1,1.496376097E-1,-7.483376503E0,1.355582047E1
4.031188785E1,-1.051877499E0,8.837522507E0,-5.343184948E0
4.041188785E1,-2.759541988E0,8.297405392E-2,1.115757847E1
4.051188785E1,1.939303428E-1,3.543418646E-1,5.890110493E0
4.061188785E1,3.200523853E0,3.215263128E0,6.318223476E0
4.071188785E1,-1.440860510E0,-7.944410324E0,1.624024391E1
4.081188785E1,-3.847931147E0,6.953434944E0,4.149301052E0
4.091188785E1,2.576759458E-1,-6.316876888E0,2.058220291E1
4.101188785E1,7.381623387E-1,-2.001178503E0,1.487031174E1
4.111188785E1,5.294178724E-1,1.463904738E0,1.266046333E1
4.121188785E1,1.429039147E-2,-4.079345703E0,1.106457901E1
4.131188785E1,4.589385390E-1,1.746270806E-1,7.941043377E0
4.141188785E1,-3.786504745E0,-4.608314514E0,9.727342606E0
4.151188785E1,2.007912159E0,2.962226152E0,1.614963889E0
4.161188785E1,-2.282123089E0,-1.256955862E-1,1.247491360E1
4.171188785E1,-1.525256157E0,4.780771732E0,6.917821407E0
4.181188785E1,-1.215730786E0,-1.229572177E0,1.156638813E1
4.191188785E1,-1.669207454E0,-2.929754734E0,1.062045383E1
4.201188785E1,-5.247790813E-1,1.565508604E0,7.609072208E0
4.211188785E1,2.224363089E-1,1.157820940E0,8.575431824E0
4.221188785E1,-2.924143314E0,-1.165228009E0,1.520983982E1
4.231188785E1,-1.399710178E0,-3.438672125E-1,6.702118874E0
4.241188785E1,-1.042375565E0,2.890923738E0,1.541132641E1
4.251188785E1,-1.711330533E0,9.894038439E-1,9.477821350E0
4.261188785E1,-1.369558215E0,6.278494835E0,4.689193726E0
4.271188785E1,3.844639063E0,-2.226457834E0,8.808342934E0
4.281188785E1,-2.220023632E0,2.777573347E0,1.563757896E1
4.291188785E1,-1.351451993E0,6.255749702E0,9.155726433E0
4.301188785E1,-1.442282081E0,-5.678148746E0,1.426996613E1
4.311188785E1,-3.785532236E0,1.774701953E0,9.403152466E0
4.321188785E1,-1.033172846E0,3.106476784E0,-4.960711002E0
4.331188785E1,-2.146775961E0,5.560758114E0,6.496591568E0
4.341188785E1,-5.112144470E0,6.773944855E0,4.005424500E0
4.351188785E1,-1.984793186E0,1.549445057E1,4.329614639E0
4.361188785E1,-3.208529472E0,-7.506570220E-1,2.136278915E1
4.371188785E1,-2.027365208E0,1.698626328E1,4.446481466E-1
4.381188785E1,-1.248202085E0,-5.334879875E0,1.076650047E1
4.391188785E1,5.645078421E-1,5.887491703E0,-2.271424055E0
4.401188785E1,-3.706673145E0,-6.199261665E0,1.581123352E1
4.411188785E1,-1.649979115E0,-1.765873432E0,1.609614372E1
4.421188785E1,-2.483610153E0,-4.967968538E-2,1.191302395E1
4.431188785E1,-5.606172681E-1,8.396914005E-1,9.021651268E0
4.441188785E1,3.734356165E0,-1.095721364E0,1.194901180E1
4.451188785E1,4.815338254E-1,4.485162735E0,6.811503887E0
4.461188785E1,-2.398316622E0,-2.764853954E0,1.627211761E1
4.471188785E1,-4.025700569E0,-9.645640254E-1,1.604092598E1
4.481188785E1,-3.741089821E0,1.970727295E-1,1.447377205E1
4.491188785E1,-5.156511784E0,-2.311302423E0,2.489408684E1
4.501188785E1,-2.375945807E0,-9.588927269E0,2.211531639E1
4.511188785E1,6.045359373E-1,3.343502760E0,1.969754577E0
4.521188785E1,-7.099556327E-1,-1.071405292E0,1.079373455E1
4.531188785E1,-1.635464191E0,1.946186662E0,1.268163776E1
4.541188785E1,-1.969829440E0,1.107692361E0,8.798915863E0
4.551188785E1,-2.819097757E0,2.291550398E0,1.461136436E1
4.561188785E1,-4.759224057E-1,2.639906645E0,2.584840059E0
4.571188785E1,-2.637362719E0,4.569558620E0,3.019986153E0
4.581188785E1,-1.816600561E0,5.167734623E-1,7.801580906E0
4.591188785E1,9.825953245E-1,-6.692541838E-1,2.397119522E0
4.601188785E1,9.726444483E-1,-9.112930298E-2,6.839036942E0
4.611188785E1,6.240636110E-1,2.095749378E0,9.651551247E0
4.621188785E1,1.735796221E-2,-1.561169147E0,1.084857655E1
4.631188785E1,-3.315595150E0,7.977181077E-1,1.265215874E1
4.641188785E1,-1.750011742E-1,1.690530896E0,1.128686523E1
4.651188785E1,4.215066910E0,1.823409081E0,8.146570206E0
4.661188785E1,-1.906906843E0,1.767070532E0,6.926724911E0
4.671188785E1,-6.105064869E0,-4.924199581E0,2.096961594E1
4.681188785E1,-2.770615101E0,-6.847342014E0,2.596474266E1
4.691188785E1,2.301426381E-1,-5.386205912E-1,1.374720693E0
4.701188785E1,-3.552621126E0,3.425953090E-1,1.710769272E1
4.711188785E1,-1.609651685E0,1.482534528E0,1.509012985E1
4.721188785E1,-9.066542387E-1,4.278887272E0,1.137253284E1
4.731188785E1,3.020958900E0,-8.411129713E-1,3.299509361E-2
4.741188785E1,-2.776226521E0,-3.528828859E0,1.532079601E1
4.751188785E1,1.535581112E0,-1.778443009E-1,8.683171272E0
4.761188785E1,-4.789301395E0,-3.122562647E0,1.764287186E1
4.771188785E1,-2.890624523E0,8.694618225E0,7.713818550E-2
4.781188785E1,-3.260528564E0,-3.617339611E0,1.155322075E1
4.791188785E1,-2.611475468E0,-3.570353389E-1,7.972691536E0
4.801188785E1,-4.429273129E0,3.048716545E0,2.551844835E0
4.811188785E1,-9.113678336E-1,5.251232624E0,4.490624428E0
4.821188785E1,-2.078615904E0,3.529202938E-1,1.128394699E1
4.831188785E1,-7.418284416E-1,7.497591972E-1,7.243731976E0
4.841188785E1,-2.419265985E0,-1.256132841E0,1.291335106E1
4.851188785E1,-5.291484833E0,-6.471377373E0,1.580734253E1
4.861188785E1,3.688566983E-1,2.776226521E0,2.826878786E0
4.871188785E1,-1.394323230E0,5.460650444E0,4.390965939E0
4.881188785E1,-2.594865799E0,-1.313070059E-1,1.353965950E1
4.891188785E1,1.966836691E0,-2.713752747E0,1.188870811E1
4.901188785E1,1.346738450E-2,1.003095746E0,1.263128471E1
4.911188785E1,-2.882020175E-1,-2.577507734E0,1.206692600E1
4.921188785E1,3.906289637E-1,-3.085752010E0,1.851959991E1
4.931188785E1,-1.893963218E0,3.692008734E0,3.068094730E0
4.941188785E1,1.934814215E0,1.102103424E1,-3.179799020E-1
4.951188785E1,-1.153331876E0,2.813486338E0,8.921094894E0
4.961188785E1,3.548655808E-1,3.329586267E0,1.425582504E1
4.971188785E1,-4.085106775E-2,5.381716490E-1,1.147593212E1
4.981188785E1,-1.947907567E0,5.857863426E0,5.831078053E0
4.991188785E1,3.486556113E-1,3.103483915E-1,8.196699142E0
5.001188785E1,4.276642799E-1,2.782735825E0,5.007697105E0
5.011188785E1,-6.473323107E-1,-1.881692857E-1,1.135674572E1
5.021188785E1,-2.756324708E-1,8.172383308E0,-2.039934635E0
5.031188785E1,-2.419116259E0,6.090175629E0,5.776011467E0
5.041188785E1,-1.446022987E0,9.210942984E-1,8.520440102E0
5.051188785E1,-5.317522049E0,5.392340660E0,6.319345951E0
5.061188785E1,-1.199420214E0,1.402104348E-1,1.009949112E1
5.071188785E1,-2.477026224E0,-1.360205889E0,1.567229462E1
5.081188785E1,2.895487547E-1,2.229151487E0,9.082104683E0
5.091188785E1,2.149469376E0,-3.115903854E0,1.492994213E1
5.101188785E1,-3.911527097E-1,4.124162197E0,7.890840054E0
5.111188785E1,-1.181763053E0,5.266196251E0,6.535796642E0
5.121188785E1,-4.958915234E0,1.494655252E0,7.559392452E0
5.131188785E1,-7.124919891E0,-1.880645394E0,2.063255692E1
5.141188785E1,-8.438813090E-1,4.031311989E0,1.141495514E1
5.151188785E1,-4.487781525E0,5.207612991E0,5.523348331E0
5.161188785E1,-1.940650105E0,4.476408958E-1,1.379471684E1
5.171188785E1,6.098181248E0,1.844433188E0,2.746448517E0
5.181188785E1,1.427019000E0,1.049296284E1,-2.490343809E0
5.191188785E1,-8.986486197E-1,5.447556973E-1,1.643223000E1
5.201188785E1,5.134590149E0,-3.118148327E0,1.144652843E1
5.211188785E1,-4.354454517E0,4.732289314E-1,1.044238567E1
5.221188785E1,-2.011204243E0,9.764078140E0,-3.650633812E0
5.231188785E1,-1.255235076E0,-4.264522076E0,2.255981445E1
5.241188785E1,-4.482843399E0,-2.416647434E0,1.566660881E1
5.251188785E1,-9.968857169E-1,5.183297157E0,2.173561096E0
5.261188785E1,-6.325181723E-1,4.689717293E0,1.341201901E0
5.271188785E1,3.922525406E0,5.351115704E0,3.331681252E0
5.281188785E1,-9.142857790E-2,3.698592663E0,3.340285540E0
5.291188785E1,3.480570614E-1,-1.820341498E-1,1.183865356E1
5.301188785E1,-1.189095259E0,3.668216228E0,1.051727962E1
5.311188785E1,-4.008417606E0,-1.684470534E0,1.518739414E1
5.321188785E1,-7.493701458E0,2.956839085E0,6.319869518E0
5.331188785E1,1.441384196E0,8.747963905E0,1.489492774E0
5.341188785E1,3.731064081E0,1.224260092E0,1.301525497E1
5.351188785E1,1.450586915E0,-1.057638645E0,8.093599319E0
5.361188785E1,-1.141211152E0,6.744167209E-1,1.795688629E1
5.371188785E1,1.436670661E0,-1.800364852E0,1.582440090E1
5.381188785E1,1.014917016E0,2.389113903E0,8.008155823E0
5.391188785E1,-1.196427464E0,2.487126589E0,9.113529205E0
5.401188785E1,-2.706270933E0,3.679813147E0,1.057152271E1
5.411188785E1,-1.674145579E0,9.969755173E0,1.085007286E1
5.421188785E1,-1.237128854E0,3.663502693E0,9.694122314E0
5.431188785E1,9.790788293E-1,1.074472785E0,6.015880585E0
5.441188785E1,-1.628805399E-1,5.026850700E0,9.255160332E0
5.451188785E1,7.307552695E-1,3.266738653E0,8.013841629E0
5.461188785E1,4.645499587E-1,2.693102837E0,1.064918423E1
5.471188785E1,1.657685399E0,1.185129833E1,8.821137249E-2
5.481188785E1,-1.353995919E0,2.524236679E0,3.191096783E0
5.491188785E1,-3.635894537E0,4.079794407E0,8.908899307E0
5.501188785E1,-1.509244919E0,2.940079689E0,1.462946987E1
5.511188785E1,-6.348375678E-1,4.644751251E-1,1.252818394E1
5.521188785E1,-5.672013760E-1,3.591975927E0,1.778263474E1
5.531188785E1,8.649053425E-2,-6.533178091E-1,8.724471092E0
5.541188785E1,3.660883904E-1,3.897535801E0,7.033042431E0
5.551188785E1,-4.417227268E0,3.403956175E0,3.015796423E0
5.561188785E1,-2.890923738E0,6.628198028E-1,1.062247467E1
5.571188785E1,-2.594341993E0,2.229749918E0,1.204567814E1
5.581188785E1,-4.025925159E0,-1.940650105E0,1.510449505E1
5.591188785E1,1.917905211E0,-3.486032486E0,1.597224331E1
5.601188785E1,-5.049520731E-1,-2.284966260E-1,1.073702240E1
5.611188785E1,1.726219416E0,-3.497030735E-1,7.101351738E0
5.621188785E1,-2.576609850E0,3.677344024E-1,1.194310093E1
5.631188785E1,3.317465782E0,1.077091455E0,4.188282013E0
5.641188785E1,7.158588409E0,1.672275066E0,6.746935368E0
5.651188785E1,1.773953795E0,-2.599878550E0,1.929808807E1
5.661188785E1,2.818424404E-1,-1.005489945E0,1.559642887E1
5.671188785E1,-2.898480296E-1,-7.168913364E0,1.958329773E1
5.681188785E1,-6.150853634E-1,5.692513943E0,1.273243904E1
5.691188785E1,1.745747089E0,1.266757131E0,6.889988899E0
5.701188785E1,-1.806125879E0,-2.941127062E0,1.808849335E1
5.711188785E1,-2.805106640E0,3.073556423E-1,1.076844597E1
5.721188785E1,3.758148551E-1,1.850717902E0,8.244209290E0
5.731188785E1,-3.459846020E0,3.270180225E0,2.335169554E0
5.741188785E1,5.198185921E0,1.924788475E0,1.260382557E1
5.751188785E1,-3.985822201E0,5.234398365E0,-1.185952902E0
5.761188785E1,-3.409567595E0,2.637512445E0,9.272743225E0
5.771188785E1,-1.737891197E0,-2.759317398E0,1.032911015E1
5.781188785E1,-7.737760544E-1,-2.929156065E0,4.301108360E0
5.791188785E1,-2.333897829E0,-4.208183765E0,9.029208183E0
5.801188785E1,-2.523862600E0,-3.664999008E0,8.391153336E0
5.811188785E1,-3.831096888E0,-3.024250746E0,8.881665230E0
5.821188785E1,-1.198148370E0,-7.308824539E0,1.701244926E1
5.831188785E1,-1.411082625E0,1.612943769E0,7.121253610E-1
5.841188785E1,-2.756698847E0,-8.096142411E-1,2.270473862E1
5.851188785E1,4.208557606E-1,-1.649081230E0,9.068412781E0
5.861188785E1,1.755323887E0,-1.713687325E1,3.297085190E1
5.871188785E1,-1.315075111E1,1.268178672E-1,1.450250244E1
5.881188785E1,-6.645331383E0,-1.369849968E1,1.910124016E1
5.891188785E1,2.776750326E0,1.011183643E1,-3.767575741E0
5.901188785E1,2.882319689E0,5.878887653E0,3.980360180E-2
5.911188785E1,4.265345097E0,-2.366518736E0,5.170652866E0
5.921188785E1,1.977086902E0,2.688389301E0,3.344325781E0
5.931188785E1,-4.647519588E0,-2.743680239E0,1.485647011E1
5.941188785E1,-1.629553556E0,3.070414066E0,5.746532917E0
5.951188785E1,1.772831559E0,-4.277390838E-1,2.477400303E0
5.961188785E1,-8.820987701E0,-1.525779843E0,2.641522789E1
5.971188785E1,1.209071875E-1,-1.092803478E0,1.584512591E0
5.981188785E1,1.498246551E0,-1.307757854E0,1.479414654E1
5.991188785E1,-9.246107936E-1,-5.779677868E0,1.927908516E1
6.001188785E1,-4.683207989E0,-1.589899510E-1,1.714951706E1
6.011188785E1,3.022006273E0,-9.735422730E-1,8.918026924E0
6.021188785E1,1.016787514E-1,1.925237417E0,7.148712158E0
6.031188785E1,2.034173727E0,-3.085752010E0,7.890241146E0
6.041188785E1,-2.965443373E0,7.822230816E0,2.178125000E1
6.051188785E1,-4.257713795E0,5.667150021E0,9.345317841E0
6.061188785E1,-1.411756039E0,2.434828281E0,6.796091080E0
6.071188785E1,1.740285307E-1,2.356268644E0,7.684489727E0
6.081188785E1,-1.460762262E0,-2.453832388E0,1.280583668E1
6.091188785E1,2.919055700E0,-1.000626683E0,8.019378662E0
6.101188785E1,-4.005798817E0,3.006967783E0,5.277643681E0
6.111188785E1,3.089941740E0,1.409661055E0,-5.019593239E-1
6.121188785E1,-2.876034737E0,3.429319859E0,4.191873074E0
6.131188785E1,-5.047426224E0,-6.707056999E0,1.641225243E1
6.141188785E1,6.080524325E-1,-9.422680140E-1,1.937829399E1
6.151188785E1,4.533196449E0,-4.281506062E0,1.293826580E1
6.161188785E1,-1.577180326E-1,2.557830334E0,7.420753479E0
6.171188785E1,-3.047220230E0,8.568997383E-1,1.274650574E1
6.181188785E1,-2.843488693E0,3.180173159E0,1.447250080E1
6.191188785E1,3.143736362E0,-1.107916832E0,8.464775085E0
6.201188785E1,1.395295858E0,-1.405097127E0,9.468469620E0
6.211188785E1,-1.231816769E0,1.953518987E-1,7.779509544E0
6.221188785E1,3.348066568E0,7.111527443E0,-3.924246132E-1
6.231188785E1,1.183633447E0,7.464222908E0,9.140837669E0
6.241188785E1,-1.036988616E0,3.813065529E0,-3.541024208E0
6.251188785E1,-6.456713200E0,-1.259200454E0,1.354841328E1
6.261188785E1,-2.288108587E0,4.223446846E0,2.831667185E0
6.271188785E1,-5.937844753E0,-4.797157288E0,1.605192566E1
6.281188785E1,-6.129156113E0,3.699266195E0,8.149264336E0
6.291188785E1,-1.410109997E0,-5.365256667E-1,1.949224281E1
6.301188785E1,-1.242740273E0,5.567416668E0,3.125181437E0
6.311188785E1,-1.170016408E0,-1.481113076E0,1.305027008E1
6.321188785E1,-2.632349968E0,-4.952331543E0,1.714278412E1
6.331188785E1,-1.541791081E0,2.809895039E0,8.141632080E0
6.341188785E1,-7.667431235E-1,3.390563726E0,9.019481659E0
6.351188785E1,3.919083834E0,-3.666869402E-1,1.214645863E1
6.361188785E1,4.228010654E0,1.277186871E1,9.266308546E-1
6.371188785E1,-1.299684906E1,-1.215581059E0,1.239829826E1
6.381188785E1,-3.932551146E0,3.159598112E0,1.029222393E1
6.391188785E1,5.566518903E-1,5.292307854E0,3.375076354E-1
6.401188785E1,-1.515305161E0,-3.567809343E0,1.317020416E1
6.411188785E1,-1.730932951E0,5.180902958E0,5.454141140E0
6.421188785E1,-8.111405373E0,-4.763563633E0,1.864147949E1
6.431188785E1,-1.110086560E0,-4.819827378E-1,8.097713470E0
6.441188785E1,-4.473640919E0,-4.961160183E0,3.705588150E1
6.451188785E1,-1.239665222E1,-9.052551270E0,2.031233215E1
6.461188785E1,-7.539491057E-1,-4.466607571E0,1.431583023E1
6.471188785E1,-9.211915970E0,-2.815843010E1,2.116481781E1
6.481188785E1,8.995464444E-1,4.481795788E0,2.754379511E0
6.491188785E1,-1.959280014E0,2.021604031E-1,1.558745003E1
6.501188785E1,-1.156803417E1,5.876268744E-1,1.021987438E1
6.511188785E1,-5.273303986E0,-3.059415579E0,1.254733753E1
6.521188785E1,-4.105756760E0,9.771335870E-2,9.052401543E0
6.531188785E1,8.224082589E-1,3.174187660E0,2.520271301E0
6.541188785E1,-1.550993770E-1,-4.982483387E0,1.244401264E1
6.551188785E1,-1.375019908E0,1.055394053E0,9.351676941E0
6.561188785E1,-1.364395738E0,1.172485471E0,8.949749947E0
6.571188785E1,-6.905775666E-1,1.260247946E0,1.163582039E1
6.581188785E1,9.894038439E-1,-3.336918652E-1,8.586878777E0
6.591188785E1,5.834370255E-1,5.204695225E0,3.797278643E0
6.601188785E1,-2.426598310E0,-2.240224600E0,1.248748302E1
6.611188785E1,-1.842637539E0,-9.733926058E-1,1.090917969E1
6.621188785E1,-2.861819267E0,7.998130322E-1,8.996063232E0
6.631188785E1,-2.272546291E0,2.070161581E0,1.278384018E1
6.641188785E1,-7.175871134E-1,1.784727693E0,6.341866016E0
6.651188785E1,-5.127332807E-1,-1.984344244E0,1.097704029E1
6.661188785E1,1.706691742E0,2.237606049E0,8.254384041E0
6.671188785E1,-1.317409515E0,7.187767506E0,3.807304382E0
6.681188785E1,-9.907506108E-1,1.328707099E0,1.386878777E1
6.691188785E1,-4.174365520E0,-1.184007525E0,9.814655304E0
6.701188785E1,-3.065850019E0,-8.824129701E-1,8.516175270E0
6.711188785E1,-9.163807034E-1,-3.801318884E0,1.590168953E1
6.721188785E1,-4.070666790E0,-2.029684544E0,7.721225739E0
6.731188785E1,-3.480271339E0,-4.951508343E-1,1.435481071E1
6.741188785E1,2.925564766E0,-4.068571568E0,1.650412941E1
6.751188785E1,1.351676464E0,-2.218078136E0,1.305475903E1
6.761188785E1,7.564929128E-1,-1.720832475E-2,1.056778145E1
6.771188785E1,3.491494179E0,1.705793858E0,8.125022888E0
6.781188785E1,1.682375550E0,3.403582096E0,3.934047461E0
6.791188785E1,-1.332448006E0,-1.294440150E0,1.310660839E1
6.801188785E1,-4.457853794E0,3.013327360E0,1.029813480E1
6.811188785E1,-2.662127733E0,-1.802384973E0,1.424901676E1
6.821188785E1,5.304653049E-1,7.196820378E-1,1.333577824E1
6.831188785E1,-1.912667871E0,-5.459677696E0,1.598571110E1
6.841188785E1,-2.069488168E-1,5.840056419E0,5.243301868E0
6.851188785E1,-6.190508008E-1,-7.748983502E-1,9.626187325E0
6.861188785E1,1.571943045E0,-7.063643336E-1,9.302670479E0
6.871188785E1,6.813748479E-1,-1.785101771E0,1.246286774E1
6.881188785E1,2.650830150E-1,3.125181437E0,1.136056232E1
6.891188785E1,-2.281973600E0,3.031732798E0,7.062520981E0
6.901188785E1,-1.377414107E0,1.270722508E0,6.913930893E0
6.911188785E1,-1.797222495E0,-2.875585794E0,1.386265182E1
6.921188785E1,-1.431582928E0,2.295590401E0,4.239757061E0
6.931188785E1,-9.285013676E-1,-2.615440845E0,1.530022049E1
6.941188785E1,-1.199120998E0,1.509843469E-1,6.111948013E0
6.951188785E1,-2.617161870E-1,-1.774776816E0,1.272832489E1
6.961188785E1,-7.733271718E-1,-2.873790264E-1,9.092803955E0
6.971188785E1,2.790741436E-2,1.109936953E0,9.919102669E0
6.981188785E1,-3.525462151E-1,-2.061258078E0,6.523750782E0
6.991188785E1,5.409399420E-2,3.259107172E-1,1.444414425E1
7.001188785E1,9.743652940E-1,-5.582979321E-1,6.588094711E0
7.011188785E1,7.317279279E-2,-3.205013037E0,1.215610981E1
7.021188785E1,-3.667617738E-1,2.751685858E0,8.492607117E0
7.031188785E1,-2.006116629E0,-5.947346687E0,1.755832672E1
7.041188785E1,-1.409212112E0,-1.066317558E0,9.717092514E0
7.051188785E1,-2.536806345E0,1.769464761E-1,7.450082302E0
7.061188785E1,-3.595941305E0,-2.296937257E-2,1.147525883E1
7.071188785E1,-2.766948938E0,-6.340145469E-1,9.829993248E0
7.081188785E1,-5.983259678E0,2.173037291E0,1.322175407E1
7.091188785E1,-1.375094771E0,5.387776852E0,7.567323208E0
7.101188785E1,-1.147645593E0,-1.807622313E0,1.297096157E1
7.111188785E1,1.987935603E-1,4.262577057E0,6.140453815E0
7.121188785E1,-5.041291118E-1,1.322123051E0,1.313152313E1
7.131188785E1,-8.875006437E-1,-4.727874756E0,1.143029308E1
7.141188785E1,-6.039373875E-1,-2.393977165E0,1.108552837E1
7.151188785E1,-2.728716612E0,-2.891447544E0,8.966959000E0
7.161188785E1,-2.647912264E0,4.176161289E0,5.188609123E0
7.171188785E1,-1.255684018E0,-2.031480074E0,1.266255856E1
7.181188785E1,-3.769296408E0,-1.128791332E0,1.094067860E1
7.191188785E1,2.207154781E-2,-2.463783175E-1,1.078505611E1
7.201188785E1,-2.145055056E0,2.210970402E0,1.150196934E1
7.211188785E1,-2.539424896E0,5.558289051E0,4.116680145E0
7.221188785E1,9.930699468E-1,-3.766228914E0,1.452000999E1
7.231188785E1,9.196727276E-1,9.904513359E-1,8.712275505E0
7.241188785E1,-2.947860770E-2,-6.103717685E-1,1.260584641E1
7.251188785E1,7.773673534E-2,-3.210923672E0,8.216675758E0
7.261188785E1,7.196820378E-1,3.910928488E0,1.811438084E0
7.271188785E1,-1.138667345E0,-8.783727139E-2,8.188544273E0
7.281188785E1,-1.662099719E0,2.272396803E0,6.976105213E0
7.291188785E1,-1.545382380E0,-4.881477833E0,1.069033527E1
7.301188785E1,-7.190086842E-1,5.208211899E0,3.656394958E0
7.311188785E1,-1.399560571E0,-4.358793736E0,1.213912678E1
7.321188785E1,-9.621698409E-2,-1.981201887E0,1.201245785E1
7.331188785E1,-1.615786910E0,2.571522295E-1,1.031541824E1
7.341188785E1,-1.500341415E0,-2.506878853E0,1.082478428E1
7.351188785E1,-2.640205860E0,5.489455462E-1,1.339099503E1
7.361188785E1,-1.009305596E0,-1.035791516E0,1.081700325E1
7.371188785E1,-6.184522510E-1,6.510732174E0,1.915136933E0
7.381188785E1,-1.730858207E0,-2.281749010E0,1.581145763E1
7.391188785E1,7.855974138E-2,3.366621733E0,3.460968256E0
7.401188785E1,-3.108721375E-1,-2.333673239E0,1.337445927E1
7.411188785E1,-1.885733128E0,-5.558288693E-1,8.175076485E0
7.421188785E1,-3.229927719E-1,-3.053280592E0,1.418848801E1
7.431188785E1,-4.308066666E-1,3.095478296E0,3.297040224E0
7.441188785E1,-2.543091178E-1,-1.370381236E0,1.199233150E1
7.451188785E1,1.145401001E0,1.562216640E0,6.845022678E0
7.461188785E1,-3.760392964E-1,1.244087100E0,1.108567715E1
7.471188785E1,-1.365443170E-1,5.475988388E-1,6.826467514E0
7.481188785E1,-8.371475935E-1,3.692308068E-1,8.955212593E0
7.491188785E1,-1.488669753E0,-5.218611360E-1,1.123935509E1
7.501188785E1,-2.130240917E0,-8.846575022E-1,1.150586033E1
7.511188785E1,-4.998644292E-1,1.248725802E-1,7.690624714E0
7.521188785E1,-1.664269447E0,-2.328211546E0,9.950825691E0
7.531188785E1,1.497199059E0,4.326771498E-1,1.041200924E1
7.541188785E1,-1.876156330E0,-2.296937257E-1,9.911845207E0
7.551188785E1,-1.887079835E0,-1.922693610E0,1.056710815E1
7.561188785E1,-3.536535263E0,-2.306962967E0,1.162878704E1
7.571188785E1,-2.458096981E0,2.283020973E0,8.489614487E0
7.581188785E1,-6.474819183E-1,2.998662710E0,8.345438957E0
7.591188785E1,-2.351106167E0,-1.443179846E0,1.211091995E1
7.601188785E1,-1.537526399E-1,-3.826233447E-1,7.452551365E0
7.611188785E1,-2.045396328E0,2.463483810E0,6.426112175E0
7.621188785E1,-2.109740496E0,-8.544307351E-1,1.199629688E1
7.631188785E1,7.551462054E-1,4.975076199E0,3.737947345E-1
7.641188785E1,4.591629803E-1,1.195155501E0,1.258946037E1
7.651188785E1,-2.780790567E0,-2.538602054E-1,1.210964775E1
7.661188785E1,-1.539995432E0,-1.898676753E0,1.218386841E1
7.671188785E1,4.935796559E-1,5.365705490E0,8.869619370E0
7.681188785E1,-1.012223601E0,-3.631031275E0,1.679831696E1
7.691188785E1,1.143231317E-1,1.734524369E0,9.903465271E0
7.701188785E1,2.232667923E0,-3.656020880E0,1.263562393E1
7.711188785E1,1.310675740E0,-9.222165942E-1,9.670928955E0
7.721188785E1,1.008033752E0,3.451989889E0,8.327182770E0
7.731188785E1,8.123077750E-1,-8.457517624E-1,9.711854935E0
7.741188785E1,-4.532373428E0,3.109768629E0,5.303979874E0
7.751188785E1,-2.318634689E-1,-9.768342972E-1,9.821389198E0
7.761188785E1,-2.110339165E0,-2.169221640E0,1.408037472E1
7.771188785E1,7.572411299E-1,3.981183290E0,4.247912407E0
7.781188785E1,-4.595370889E-1,4.222024977E-1,8.855927467E0
7.791188785E1,6.627449393E-1,3.237634182E0,5.713014126E0
7.801188785E1,-7.542483807E-1,-3.541772604E0,1.134836674E1
7.811188785E1,-4.370465755E0,5.973982334E0,2.241271973E0
7.821188785E1,-1.269824743E0,-7.613561153E-1,1.012507915E1
7.831188785E1,-1.679532528E0,2.206331730E0,7.170634270E0
7.841188785E1,-2.374748707E0,-4.029740691E-1,1.388412571E1
7.851188785E1,1.391629726E-1,-1.100659370E0,5.639392376E0
7.861188785E1,-2.100538015E0,-1.848099232E0,1.582283020E1
7.871188785E1,-5.781248808E-1,-2.725648880E0,1.266240883E1
7.881188785E1,-1.883488536E0,-1.643918753E0,1.396186161E1
7.891188785E1,-9.430910349E-1,9.796025753E-1,9.091906548E0
7.901188785E1,-7.574655414E-1,3.891325891E-1,9.127669334E0
7.911188785E1,-1.221940637E0,2.452560425E0,7.079280376E0
7.921188785E1,-4.618564844E-1,-8.833107948E-1,9.669881821E0
7.931188785E1,-3.967192173E0,2.645592928E0,6.839111805E0
7.941188785E1,-1.605162621E0,3.586514235E0,1.104475212E1
7.951188785E1,6.144868135E-1,-1.490315795E0,1.039562416E1
7.961188785E1,-1.734075427E0,-1.396717429E0,9.671676636E0
7.971188785E1,-3.554192305E0,-3.346645117E0,1.969328117E1
7.981188785E1,-4.848258570E-2,1.281646043E-1,9.521665573E0
7.991188785E1,-2.409315109E0,-5.595324039E0,1.756184387E1
8.001188785E1,1.052999854E0,2.786252260E0,4.329015732E0
8.011188785E1,-1.378611207E0,-2.166004419E0,1.058267117E1
8.021188785E1,-1.850942373E0,5.910984516E0,5.096507072E0
8.031188785E1,-1.127893448E0,-2.204760551E0,5.593154430E0
8.041188785E1,-1.301847219E0,-2.410661936E0,1.120044994E1
8.051188785E1,-4.778901577E0,-3.672630548E0,1.455846691E1
8.061188785E1,-1.733027935E0,-2.293645144E0,1.239994431E1
8.071188785E1,7.814823985E-1,9.026140571E-1,6.934356213E0
8.081188785E1,-4.303577542E-1,-1.537077546E0,1.156736088E1
8.091188785E1,-2.249876261E0,-1.576058030E0,1.105290699E1
8.101188785E1,-6.385036707E-1,7.867197394E-1,1.319115353E1
8.111188785E1,-1.423801780E0,8.427590132E-1,9.929203033E0
8.121188785E1,-7.071124911E-1,3.631330490E0,6.203900337E0
8.131188785E1,-2.486378431E0,-2.020631313E0,1.175934601E1
8.141188785E1,-3.995324075E-1,9.053823352E-1,6.353687763E0
8.151188785E1,-2.747870207E0,-4.768875599E0,1.701274872E1
8.161188785E1,1.468693167E-1,-1.870470122E-2,7.069105148E0
8.171188785E1,-1.477147579E0,7.665186524E-1,6.345083237E0
8.181188785E1,9.599252790E-2,3.839401722E0,7.459285259E0
8.191188785E1,-1.972971797E0,1.637783647E0,1.062314796E1
8.201188785E1,-1.836651921E0,-1.812186241E0,1.352581787E1
8.211188785E1,-1.159466982E0,2.555062175E-1,9.097816467E0
8.221188785E1,-1.313444138E0,1.766397119E0,6.313285351E0
8.231188785E1,-3.829974413E0,3.007266998E0,7.439457893E0
8.241188785E1,-3.777002811E0,7.751227915E-2,1.196225452E1
8.251188785E1,-2.236783028E0,-2.179097652E0,1.270438194E1
8.261188785E1,2.207902819E-1,2.473509610E-1,1.185040092E1
8.271188785E1,4.815338254E-1,-2.422857285E0,1.289689159E1
8.281188785E1,-1.648258269E-1,2.649034500E0,1.145423508E1
8.291188785E1,-1.602319479E0,-3.087772131E-1,1.163028336E1
8.301188785E1,-3.108571529E0,-1.653944492E0,1.296213341E1
8.311188785E1,-2.607510090E0,-3.398270011E-1,9.346963882E0
8.321188785E1,-9.378536940E-1,-7.411550879E-1,1.262649632E1
8.331188785E1,-9.171288610E-1,9.810241461E-1,8.205752373E0
8.341188785E1,-2.800018787E0,1.064746380E0,8.046912193E0
8.351188785E1,3.832967281E-1,-1.573439479E0,8.698509216E0
8.361188785E1,-6.019172668E-1,1.619452953E0,7.950170994E0
8.371188785E1,-2.275314569E0,-2.826729298E0,1.148962402E1
8.381188785E1,6.698527336E-1,2.067018986E0,6.792125702E0
8.391188785E1,-8.708908558E-1,2.074201584E0,1.032626629E1
8.401188785E1,-9.831938744E-1,-3.297638655E0,1.205749893E1
8.411188785E1,1.329380512E0,3.506083965E0,4.973131180E0
8.421188785E1,-1.713051319E0,1.628955007E0,7.865401268E0
8.431188785E1,-2.687267065E0,-1.395669937E0,1.391532516E1
8.441188785E1,-3.361234665E0,-1.454552293E0,1.280688381E1
8.451188785E1,1.812111437E-1,7.844003439E-1,9.601871490E0
8.461188785E1,-1.952770710E0,2.746972322E0,7.175272942E0
8.471188785E1,4.147954583E-1,-1.321524501E0,8.998831749E0
8.481188785E1,-2.946364582E-1,3.195960045E0,8.768613815E0
8.491188785E1,1.286210060E0,1.610699177E0,6.342315197E0
8.501188785E1,-4.446481466E-1,-8.806173205E-1,1.342660809E1
8.511188785E1,-2.913444340E-1,3.239504576E0,6.967650890E0
8.521188785E1,-1.690680504E0,5.732616782E-1,1.096230125E1
8.531188785E1,-2.100687504E0,1.756072164E0,6.053140640E0
8.541188785E1,1.398887157E0,4.283376336E-1,1.139520264E1
8.551188785E1,-9.853636473E-2,-1.878550529E0,1.098841286E1
8.561188785E1,-1.999831796E0,9.861866236E-1,7.111901283E0
8.571188785E1,-1.101407647E0,3.145083189E0,6.730774403E0
8.581188785E1,-1.036988616E0,-3.491868258E0,1.533059692E1
8.591188785E1,-3.919008970E-1,3.096750259E0,1.005654526E1
8.601188785E1,-8.075193167E-1,-4.722413063E0,1.852820396E1
8.611188785E1,6.765116453E-1,-2.307935715E0,1.067058277E1
8.621188785E1,-4.856862545E0,-3.528454900E-1,1.083870029E1
8.631188785E1,-1.140762329E0,-1.811587691E0,1.588477993E1
8.641188785E1,-1.520916581E0,4.475361347E0,4.364405155E0
8.651188785E1,-5.516390204E-1,-2.524236679E0,1.241363621E1
8.661188785E1,-9.996540546E-1,-6.587795734E0,1.905485344E1
8.671188785E1,-7.857470512E-1,2.487650394E0,5.053037643E0
8.681188785E1,-5.585223436E-1,4.325873375E0,5.177161694E0
8.691188785E1,-2.956240654E0,-3.772663355E0,1.356382561E1
8.701188785E1,-3.545214176E0,-3.437924087E-1,1.035252857E1
8.711188785E1,-2.008435965E0,1.079635382E0,9.099612236E0
8.721188785E1,-2.114080191E0,-1.581070900E0,1.015021801E1
8.731188785E1,-1.774552345E0,1.577704072E0,8.881889343E0
8.741188785E1,-9.105448127E-1,1.895609140E0,9.674445152E0
8.751188785E1,4.429273307E-2,-7.154173851E-1,9.708413124E0
8.761188785E1,5.380220413E-1,-9.241543770E0,1.293886471E1
8.771188785E1,-9.727192521E-1,-6.706757545E-1,7.988627911E0
8.781188785E1,2.720336914E0,6.793547153E0,5.378798485E0
8.791188785E1,2.090437412E0,-1.654094100E0,4.947618008E0
8.801188785E1,-2.816104889E0,-3.312378168E0,2.100238609E1
8.811188785E1,3.285742521E0,3.158999443E0,7.056984425E0
8.821188785E1,-2.551321127E-2,-2.832490206E0,7.958176613E0
8.831188785E1,-1.917157054E0,-5.084311962E0,1.348115158E1
8.841188785E1,-1.816600561E0,-5.237316247E-3,1.123853207E1
8.851188785E1,-1.762656212E0,-3.983428001E0,1.397241116E1
8.861188785E1,-1.755548358E0,2.238503695E0,1.055521202E1
8.871188785E1,-2.193537712E0,2.638410330E0,6.443171024E0
8.881188785E1,-7.297077775E-1,-2.001552582E0,1.119805527E1
8.891188785E1,-3.177030802E0,1.791162193E-1,1.299939251E1
8.901188785E1,-2.466027737E-1,5.248913288E0,4.352434158E0
8.911188785E1,-2.037465572E0,-9.813234210E-1,1.770235252E1
8.921188785E1,2.709937096E-1,9.160814285E-1,2.924143314E0
8.931188785E1,-2.021753788E0,-1.544334888E0,1.163215446E1
8.941188785E1,-2.390834808E0,-6.404489279E-2,1.317566586E1
8.951188785E1,-3.832219243E-1,9.799018502E-1,8.906879425E0
8.961188785E1,-1.752331138E0,-1.733925819E0,9.286808968E0
8.971188785E1,-2.859574556E0,3.558157921E0,4.539331436E0
8.981188785E1,-2.201692820E0,-2.563367128E0,1.272518158E1
8.991188785E1,1.256058097E0,1.403675556E0,9.254113197E0
9.001188785E1,7.766191661E-2,1.471685916E-1,8.065690994E0
9.011188785E1,-8.570494056E-1,1.120411634E0,1.385494614E1
9.021188785E1,-1.034968495E0,2.906934977E0,7.397185326E0
9.031188785E1,-9.953893423E-1,-3.456628695E-2,1.134739399E1
9.041188785E1,-2.064250708E0,6.611213684E0,5.371017456E0
9.051188785E1,7.264905572E-1,-8.040028811E-1,9.229871750E0
9.061188785E1,-1.268926859E0,-8.272715211E-1,1.653046608E1
9.071188785E1,1.398288608E0,-7.992144823E-1,9.087192535E0
9.081188785E1,8.039280176E-1,-1.580696821E0,1.495784950E1
9.091188785E1,-8.741828799E-1,7.953238487E-2,1.173106480E1
9.101188785E1,-5.449352741E0,1.516352654E0,1.096581745E1
9.111188785E1,-2.257956743E0,6.257994175E0,8.893037796E0
9.121188785E1,-2.553116798E0,8.343793154E-1,1.020842743E1
9.131188785E1,-2.547879457E0,-6.253355503E0,1.017707825E1
9.141188785E1,-1.531540900E-1,1.832013249E0,7.702595711E0
9.151188785E1,-9.956138134E-1,-1.080159068E0,9.125425339E0
9.161188785E1,-5.737105608E-1,3.154659986E0,7.228244781E0
9.171188785E1,-6.828712225E-1,1.788917542E0,1.253042889E1
9.181188785E1,8.233060837E-1,-1.315015316E0,6.054935932E0
9.191188785E1,-4.102240086E0,-6.558616161E-1,1.082635593E1
9.201188785E1,-2.105550766E0,2.762160540E0,7.999476910E0
9.211188785E1,-4.361936077E-2,4.376451015E0,7.992743015E0
9.221188785E1,-1.128716469E0,-5.188609123E0,1.749585342E1
9.231188785E1,-1.915436149E0,8.880692482E0,2.519598007E0
9.241188785E1,1.136348009E0,6.331915259E-1,1.056142235E1
9.251188785E1,1.111657739E0,-1.290100574E1,1.393447876E1
9.261188785E1,-3.801543415E-1,-5.520879626E-1,1.482220364E1
9.271188785E1,-3.435230494E0,-7.883956432E0,8.254533768E0
9.281188785E1,-1.495702744E0,1.055394053E0,4.657919407E0
9.291188785E1,-9.074772596E-1,-2.297386169E0,8.277578354E0
9.301188785E1,2.517203808E0,-1.165377736E0,1.342952633E1
9.311188785E1,1.716792226E0,-5.811176300E-1,9.350255013E0
9.321188785E1,-9.695020318E-1,-7.592611909E-1,8.584709167E0
9.331188785E1,-6.407856464E0,1.043273449E0,6.048501492E0
9.341188785E1,-2.935141623E-1,-1.908328414E0,9.666214943E0
9.351188785E1,3.366846144E-1,8.553285599E-1,9.108665466E0
9.361188785E1,-1.193734050E0,1.729062557E0,9.234660149E0
9.371188785E1,-1.918428898E0,-4.294599295E-1,1.102694511E1
9.381188785E1,-6.610540390E0,-1.515305161E0,8.483030319E0
9.391188785E1,-1.570745945E0,4.804863632E-1,1.107677460E1
9.401188785E1,4.743511975E-1,-1.244535923E0,1.415878487E1
9.411188785E1,8.890718222E-1,-4.273650050E-1,1.109121418E1
9.421188785E1,-5.686229095E-3,9.002198577E-1,8.617854118E0
9.431188785E1,-2.442384958E0,1.889773369E0,6.953734398E0
9.441188785E1,2.336591184E-1,1.671676517E0,7.495347500E0
9.451188785E1,-5.499181896E-2,2.191143513E0,9.177124977E0
9.461188785E1,4.383633733E-1,-6.828712225E-1,9.646088600E0
9.471188785E1,-3.095702887E0,-1.146224067E-1,1.147772789E1
9.481188785E1,-2.538976192E0,1.519270658E0,8.257452011E0
9.491188785E1,-2.434529066E0,9.454852343E-1,8.073697090E0
9.501188785E1,-1.696740866E0,9.697265029E-1,7.119682312E0
9.511188785E1,5.989245176E-1,2.714201689E0,7.830835342E0
9.521188785E1,2.137573212E-1,6.922235489E-1,7.864802837E0
9.531188785E1,-1.409511447E0,8.848071694E-1,8.427515030E0
9.541188785E1,-1.294365227E-1,1.955239773E0,1.093491745E1
9.551188785E1,-3.300257325E-1,-9.834183455E-1,1.043108749E1
9.561188785E1,2.875885248E0,-3.780594170E-1,1.005976200E1
9.571188785E1,-6.803273559E-1,3.749918342E-1,6.373290062E0
9.581188785E1,-7.659201026E-1,-3.445106506E0,1.178560734E1
9.591188785E1,-2.057217836E0,-6.203975081E-1,1.055865383E1
9.601188785E1,-1.165602088E0,-1.502137065E0,1.056389141E1
9.611188785E1,-2.245686293E0,-2.829946518E0,1.203153706E1
9.621188785E1,-1.845031738E0,1.035492182E0,1.195828915E1
9.631188785E1,-2.304119825E0,-1.664568782E0,1.324659443E1
9.641188785E1,-2.289455414E0,6.414964199E-1,1.229632092E1
9.651188785E1,-1.407566190E0,8.197896481E-1,8.549020767E0
9.661188785E1,-1.857526422E0,-1.974094152E0,1.390649605E1
9.671188785E1,-2.757447004E0,2.875286639E-1,1.339914989E1
9.681188785E1,-2.676343441E0,1.811138749E0,1.090042591E1
9.691188785E1,-2.368463993E0,1.187000275E0,1.010046387E1
9.701188785E1,-2.091409922E0,-7.180360556E-1,8.707936287E0
9.711188785E1,-5.018845201E-1,-1.432031840E-1,1.032798767E1
9.721188785E1,-6.864625216E-1,-7.407809496E-1,1.096798801E1
9.731188785E1,-6.753893495E-1,2.648735285E0,4.837110519E0
9.741188785E1,-1.611597061E0,2.684049845E0,1.130841351E1
9.751188785E1,-2.148197412E0,-8.377461433E-1,1.274710369E1
9.761188785E1,-5.329343081E-1,3.749244928E0,5.186589241E0
9.771188785E1,-2.243741035E0,-6.447884440E-1,7.818939209E0
9.781188785E1,1.835529685E0,-5.643208027E0,1.120007515E1
9.791188785E1,-1.899649352E-1,-5.634604096E-1,8.943690300E0
9.801188785E1,-9.043349028E-1,1.758615971E0,1.081947231E1
9.811188785E1,-8.031050563E-1,-3.299584150E0,1.247678375E1
9.821188785E1,-5.123591423E-1,4.646247625E-1,1.012709904E1
9.831188785E1,-9.733178020E-1,-1.324218035E0,1.286023045E1
9.841188785E1,8.729109764E-1,5.442020416E0,4.587066174E0
9.851188785E1,1.204507947E0,1.697339416E0,7.455543995E0
9.861188785E1,1.290624380E0,7.157166600E-1,7.740603924E0
9.871188785E1,5.669020414E-1,1.580397606E0,2.903942108E0
9.881188785E1,-2.963049173E0,1.804629564E0,1.008632278E1
9.891188785E1,-2.470516920E0,8.354267478E-1,1.377690983E1
9.901188785E1,-2.013448715E0,-4.575169683E-1,9.268553734E0
9.911188785E1,-1.165901423E0,3.479298830E0,7.420005322E0
9.921188785E1,-1.598503709E0,2.556109667E0,9.312322617E0
9.931188785E1,-5.900958776E-1,4.156932831E-1,1.013622665E1
9.941188785E1,-1.389759302E0,-7.861211896E-1,1.147451115E1
9.951188785E1,-2.769044042E-1,-2.081683636E0,1.127294922E1
9.961188785E1,4.676175117E-1,2.868403196E0,7.552883148E0
9.971188785E1,-7.333738804E-1,4.456208050E-1,7.239392757E0
9.981188785E1,-5.626373887E-1,2.507851362E0,9.550545692E0
9.991188785E1,-1.474678665E-1,-1.676838994E0,1.020169353E1
1.000118878E2,-2.606761932E0,8.931120634E-1,9.984494209E0
1.001118878E2,-4.142717123E-1,1.353546977E0,8.109909058E0
1.002118878E2,-8.017582893E-1,-6.316203475E-1,9.457770348E0
1.003118878E2,-1.876979351E0,-5.369894981E0,1.825601196E1
1.004118878E2,-1.179967403E0,-7.246949077E-1,1.559799957E1
1.005118878E2,2.269254327E-1,4.647070885E0,7.871087551E0
1.006118878E2,-1.742081046E0,-1.319055557E0,1.122177315E1
1.007118878E2,-1.415272474E0,1.299228549E0,5.147982597E0
1.008118878E2,-5.316848755E0,3.274893761E0,7.989750385E0
1.009118878E2,1.763778448E0,3.005920172E0,8.002020836E0
1.010118878E2,1.369632959E0,4.496235847E0,8.567201614E0
1.011118878E2,-1.629628301E0,1.857301950E0,9.718439102E0
1.012118878E2,-4.630086899E0,1.942221284E0,6.535347462E0
1.013118878E2,-8.557774425E-1,2.073004484E0,9.514108658E0
1.014118878E2,3.541173935E-1,4.199728966E0,1.005931282E1
1.015118878E2,-3.973028183E0,4.539256692E-1,1.037063408E1
1.016118878E2,-2.246584177E0,-3.957914561E-2,8.464849472E0
1.017118878E2,-6.619369030E0,-6.215946198E0,2.021716309E1
1.018118878E2,2.462062359E0,1.154154897E0,4.443189621E0
1.019118878E2,-6.382043660E-2,2.683974981E0,7.823428154E0
1.020118878E2,-3.863044500E0,6.705784798E0,3.802815199E0
1.021118878E2,-3.670835018E0,-1.747767180E-1,7.905953407E0
1.022118878E2,1.120860457E0,-2.624868155E0,1.040916634E1
1.023118878E2,3.659387529E-1,-5.114538670E0,1.065950966E1
1.024118878E2,-6.477063894E-1,4.388870895E-1,7.448585987E0
1.025118878E2,-1.709160686E0,1.876605272E0,9.948282242E0
1.026118878E2,6.370072961E-1,-3.741837978E0,1.420846462E1
1.027118878E2,-3.428421974E0,-4.709693909E0,1.358312893E1
1.028118878E2,-1.066616893E0,2.404825926E0,1.231914043E1
1.029118878E2,1.079485655E0,-1.374107170E1,1.321150398E1
1.030118878E2,1.197849065E-1,2.554313898E0,1.928903580E0
1.031118878E2,-2.726546764E0,-6.961365700E0,1.227769089E1
1.032118878E2,-1.667262197E0,-1.080607986E1,2.270533752E1
1.033118878E2,-9.152584076E-1,-5.674108505E0,1.305700302E1
1.034118878E2,-1.910423279E0,6.528838634E0,1.810465455E0
1.035118878E2,1.166724443E0,1.132569599E1,2.772784948E0
1.036118878E2,1.608005762E0,5.177087307E0,5.968969345E0
1.037118878E2,-6.034884453E-1,-4.948665142E0,1.177722740E1
1.038118878E2,-1.687463284E0,-2.010231495E0,8.472556114E0
1.039118878E2,-2.882768393E0,-1.008781910E0,8.332270622E0
1.040118878E2,2.571372509E0,1.304997063E1,-4.587664604E0
1.041118878E2,-6.471826434E-1,1.507449269E0,7.724517822E0
1.042118878E2,-4.566939771E-1,2.299107075E0,8.502633095E0
1.043118878E2,5.772270560E-1,-5.818733215E0,1.432181549E1
1.044118878E2,-7.000795603E-1,1.774477601E0,1.088673401E1
1.045118878E2,-1.485377669E0,5.317372322E0,3.727472782E0
1.046118878E2,7.631517947E-3,-2.187402487E0,1.059554005E1
1.047118878E2,-2.348337889E0,-9.280000687E0,1.758077240E1
1.048118878E2,-5.901707411E-1,2.154556990E0,9.227402687E0
1.049118878E2,-3.192518353E-1,4.940734386E0,5.352462292E0
1.050118878E2,-1.134178281E0,-1.628356457E0,1.258108139E1
1.051118878E2,-1.539696097E0,1.398363411E-1,1.204470539E1
1.052118878E2,-3.340360165E0,1.476997972E0,8.727089882E0
1.053118878E2,-3.267337084E-1,-3.251625299E-1,9.460613251E0
1.054118878E2,-3.359813213E0,-1.866781425E1,3.644004822E1
1.055118878E2,-9.088240266E-1,-2.538976192E0,1.529079342E1
1.056118878E2,-3.193116903E0,-1.518073529E-1,5.010091305E0
1.057118878E2,5.865494728E0,5.405359268E0,-1.396567822E0
1.058118878E2,1.060556531E0,4.004302502E0,9.104550362E0
1.059118878E2,-3.830199003E0,-1.813009262E0,8.910395622E0
1.060118878E2,-1.041702151E0,1.499144316E0,4.488529682E0
1.061118878E2,3.029413223E-1,3.293897867E0,1.951498866E0
1.062118878E2,-1.397241116E0,-9.850194931E0,1.942445755E1
1.063118878E2,8.230068088E-1,-1.081655383E0,6.439280510E0
1.064118878E2,1.460088968E0,4.396277905E0,2.838625431E0
1.065118878E2,-3.508627653E0,-6.615403652E0,1.271867275E1
1.066118878E2,1.649754643E-1,-1.184905410E0,1.032312393E1
1.067118878E2,7.533505559E-1,3.638064384E0,8.117690086E0
1.068118878E2,1.351975799E0,-4.820575416E-1,1.310114670E1
1.069118878E2,-2.783409119E0,4.067299843E0,5.636324883E0
1.070118878E2,-4.303577542E-1,-1.733102798E0,3.683778524E0
1.071118878E2,-5.007622242E-1,4.623951435E0,5.056778431E0
1.072118878E2,-3.249380589E-1,-2.956614733E0,6.980220318E0
1.073118878E2,-5.288417339E0,-3.335646629E0,1.365495491E1
1.074118878E2,-1.481561899E0,1.196277857E0,8.282890320E0
1.075118878E2,1.064895988E0,6.619967937E0,4.916493416E0
1.076118878E2,2.980032861E-1,2.291699886E0,1.275600719E1
1.077118878E2,-8.753799647E-2,-1.096319914E0,1.048398495E1
1.078118878E2,-2.086995602E0,1.506102532E-1,8.086790085E0
1.079118878E2,-8.203133345E-1,8.422502518E0,4.007070541E0
1.080118878E2,-3.040636182E-1,-6.940940619E-1,1.122289562E1
1.081118878E2,-1.593640447E-2,-1.101332754E-1,1.221304703E1
1.082118878E2,-1.304316163E0,-4.828805625E-1,1.148528481E1
1.083118878E2,-6.944681406E-1,2.336441517E0,4.159925461E0
1.084118878E2,-1.335291147E0,-9.135375917E-2,9.194706917E0
1.085118878E2,-9.062801600E-1,-5.539584160E-1,1.076425648E1
1.086118878E2,7.022492886E-1,4.942829609E0,2.613196373E0
1.087118878E2,-2.890399933E0,-2.006191492E0,1.316825867E1
1.088118878E2,-3.711760938E-1,2.464830637E0,4.964975834E0
1.089118878E2,-2.570624352E0,-2.267683029E0,9.133729935E0
1.090118878E2,3.675847650E-1,-1.931148171E0,1.134140873E1
1.091118878E2,-8.990975618E-1,-1.942370892E0,1.063975716E1
1.092118878E2,-1.757718086E0,-9.919477105E-1,1.370194149E1
1.093118878E2,-1.932794094E0,-4.920907497E0,1.538334465E1
1.094118878E2,-1.007435203E0,-8.767267466E-1,1.179974842E1
1.095118878E2,-2.058265209E0,-3.373579741E0,1.374466324E1
1.096118878E2,-1.543212652E0,-3.644723177E0,1.336076736E1
1.097118878E2,-2.499621391E0,-6.585326672E0,1.307623196E1
1.098118878E2,-1.421781659E0,-4.015225887E0,1.308206749E1
1.099118878E2,-1.043048978E0,5.468506217E-1,8.467917442E0
1.100118878E2,1.149965003E-1,5.541080832E-1,1.026222229E1
1.101118878E2,8.338555694E-1,-3.458424330E0,1.844006729E1
1.102118878E2,-3.505485296E0,-8.301894665E-1,1.250581360E1
1.103118878E2,7.262660980E0,3.558756351E0,3.059490442E0
1.104118878E2,-1.189469337E0,2.458396196E0,1.283823299E1
1.105118878E2,-3.797877312E0,-2.613121510E0,1.718146515E1
1.106118878E2,-4.283376336E-1,2.573018551E0,1.134282970E1
1.107118878E2,-1.024269462E0,3.834164381E0,5.566518784E0
1.108118878E2,-2.052354574E0,-2.835632563E0,1.213575935E1
1.109118878E2,-7.574655414E-1,7.518691063E0,4.556015968E0
1.110118878E2,-1.291073322E0,4.115782380E-1,9.975142479E0
1.111118878E2,-1.990180135E0,-1.951124787E0,1.281129837E1
1.112118878E2,-4.013280571E-1,-1.404872656E0,9.053299904E0
1.113118878E2,-8.062474132E-1,3.954547882E0,3.956642866E0
1.114118878E2,-1.257928491E0,-2.925415337E-1,9.573664665E0
1.115118878E2,-4.313304126E-1,2.701108456E0,7.386037350E0
1.116118878E2,3.690811694E-1,1.990554214E0,7.821482658E0
1.117118878E2,7.976432443E-1,1.785924882E-1,1.076605129E1
1.118118878E2,-9.305214286E-1,2.026616812E0,7.503877163E0
1.119118878E2,-1.170016408E0,2.934617996E0,8.775347710E0
1.120118878E2,1.513434768E0,2.874837637E0,8.425868988E0
1.121118878E2,9.871593118E-1,-1.239523053E0,1.142221260E1
1.122118878E2,-1.100584567E-1,-5.364508033E-1,9.372476578E0
1.123118878E2,-4.632780254E-1,8.894459605E-1,6.647426128E0
1.124118878E2,-1.816376090E0,1.433453441E0,9.846902847E0
1.125118878E2,-7.014262676E-1,-1.290325046E0,9.314342499E0
1.126118878E2,6.756138206E-1,-7.796119153E-2,1.226691723E1
1.127118878E2,-8.185176849E-1,-1.497498393E0,9.512612343E0
1.128118878E2,-1.777395487E0,1.279326677E0,6.939444065E0
1.129118878E2,-4.419920921E0,-4.440795422E0,1.464622974E1
1.130118878E2,-1.953593731E0,9.320178032E-1,5.672986031E0
1.131118878E2,-1.596483588E0,-3.646668494E-1,7.881188393E0
1.132118878E2,-2.765452623E0,-1.675567150E0,1.013443089E1
1.133118878E2,-2.081683636E0,1.553986549E0,1.064836216E1
1.134118878E2,-1.038485020E-1,2.132335901E0,5.521852016E0
1.135118878E2,1.299827099E0,-1.192312479E0,9.605088234E0
1.136118878E2,-1.329679728E0,3.129146814E0,7.071723461E0
1.137118878E2,-1.634267092E0,1.444751024E-1,1.101871490E1
1.138118878E2,-7.395090461E-1,-3.043628931E0,1.299684906E1
1.139118878E2,-1.922693610E0,4.036399841E0,5.486313343E0
1.140118878E2,2.483236045E-1,1.628805399E-1,1.035933685E1
1.141118878E2,-1.532812834E0,-6.374561787E-2,1.313713455E1
1.142118878E2,-2.732382715E-1,2.089240313E0,8.002618790E0
1.143118878E2,2.511592388E0,1.388711810E0,1.063594151E1
1.144118878E2,1.845630288E0,8.529343605E-1,1.247019958E1
1.145118878E2,-8.738088012E-1,-7.119757533E-1,1.020423698E1
1.146118878E2,-4.694879949E-1,1.863062978E0,9.520468712E0
1.147118878E2,-3.032480955E0,2.833537817E0,9.381753922E0
1.148118878E2,-5.984756351E-1,7.027580738E0,5.719373703E0
1.149118878E2,-9.644144028E-2,-2.874538422E0,9.955315590E0
1.150118878E2,6.400000453E-1,2.875286639E-1,3.744232178E0
1.151118878E2,-8.418611884E-1,-5.887491703E-1,1.162197876E1
1.152118878E2,-2.884264886E-1,8.001123071E-1,7.040000439E0
1.153118878E2,-3.753659427E-1,-2.816254616E0,1.115877533E1
1.154118878E2,-1.562889934E0,6.753444672E0,3.090989113E0
1.155118878E2,-2.390460819E-1,1.052401304E0,5.732092857E0
1.156118878E2,-8.157494068E-1,-1.268777251E0,1.058349419E1
1.157118878E2,-1.749936938E0,4.501248837E0,8.604237556E0
1.158118878E2,-2.243965626E0,1.346439123E0,1.307151794E1
1.159118878E2,-8.189666271E-1,7.572411299E-1,4.750694752E0
1.160118878E2,-9.485527873E-1,2.687491477E-1,7.834127426E0
1.161118878E2,1.211017132E0,-1.621622682E0,1.100547218E1
1.162118878E2,1.710507512E0,-1.878700137E0,1.075056458E1
1.163118878E2,-9.478045702E-1,5.735085487E0,3.711985350E0
1.164118878E2,-4.634276628E-1,-1.767968297E0,1.366326046E1
1.165118878E2,-1.132831454E0,3.197381496E0,3.065176725E0
1.166118878E2,-2.552967310E0,8.824877739E-1,1.261998653E1
1.167118878E2,-2.905737877E0,-2.135104179E0,1.228270340E1
1.168118878E2,-2.175431490E0,4.305821896E0,5.569137573E0
1.169118878E2,-3.887510300E0,2.554463625E0,4.985775471E0
1.170118878E2,-1.633818150E0,1.442506552E0,8.636408806E0
1.171118878E2,-1.321300119E-1,-2.709563017E0,1.264602375E1
1.172118878E2,3.351508379E0,2.273294449E0,4.419920921E0
1.173118878E2,9.793033004E-1,-5.666027665E-1,8.381052971E0
1.174118878E2,-4.316221714E0,7.752873898E0,2.005218744E0
1.175118878E2,-2.547954321E0,-6.920440197E0,1.803200531E1
1.176118878E2,4.212672710E0,2.633973503E1,-6.458059788E0
1.177118878E2,-1.077241182E0,3.579630852E0,6.232481003E0
1.178118878E2,-3.437699556E0,7.358354568E0,2.581922054E0
1.179118878E2,-3.731138945E0,-5.484292984E0,1.435114384E1
1.180118878E2,-4.115408421E0,-1.953294516E0,7.193902969E0
1.181118878E2,-1.307234168E0,-9.419687390E-1,1.549130821E1
1.182118878E2,-6.187440395E0,4.617666721E0,8.566977501E0
1.183118878E2,-2.179322004E0,-1.647218323E1,2.796786690E1
1.184118878E2,-1.635913134E0,8.715867043E0,-4.103362560E0
1.185118878E2,-8.282965660E0,-4.665925026E0,1.502533627E1
1.186118878E2,7.570989609E0,3.856161118E0,-1.287332296E0
1.187118878E2,-5.430872440E0,-1.607736397E1,2.641395569E1
1.188118878E2,-5.298368454E0,-1.365667582E0,1.641621780E1
1.189118878E2,-1.664942861E0,1.311723232E1,-2.531793594E0
1.190118878E2,-4.807856381E-1,-3.362282276E0,2.016748238E1
1.191118878E2,1.509544134E0,5.269862175E0,-1.123928070E0
1.192118878E2,4.090942383E0,-1.031975746E0,1.155209827E1
1.193118878E2,-4.578386784E0,5.903203487E0,1.841814518E0
1.194118878E2,-4.980313778E0,-8.024017334E0,2.066091347E1
1.195118878E2,-4.195763588E0,-1.087132168E1,1.873275757E1
1.196118878E2,-2.656441689E0,-4.138751507E0,1.041335583E1
1.197118878E2,-5.501576424E0,8.808417916E-1,1.384776306E1
1.198118878E2,-4.978518009E0,6.521955013E0,5.082964897E0
1.199118878E2,-4.570980072E0,-9.837924242E-1,1.678612137E1
1.200118878E2,-1.320776343E0,4.271854401E0,7.144298077E0
1.201118878E2,2.635492325E0,5.421520233E0,3.680636168E0
1.202118878E2,-4.934300184E-1,8.581566811E0,6.770278454E0
1.203118878E2,6.702268124E-1,5.162198067E0,3.377395630E0
1.204118878E2,-5.559785366E0,4.539855480E0,1.383287430E1
1.205118878E2,9.142857790E-1,1.255437088E1,-3.797503233E0
1.206118878E2,-2.541145802E0,-4.896965504E0,8.795997620E0
1.207118878E2,-2.858227968E0,3.250876904E0,5.599214554E0
1.208118878E2,-2.460566044E0,-1.041552544E0,6.361019611E0
1.209118878E2,1.174655199E0,-4.130895615E0,1.231539917E1
1.210118878E2,4.363058567E0,1.552490145E-1,1.244835281E1
1.211118878E2,-9.567080140E-1,2.014720678E0,1.115091991E1
1.212118878E2,-3.614720821E0,2.277484417E0,7.785569668E0
1.213118878E2,-2.656591177E0,2.921225309E0,1.826962852E1
1.214118878E2,-2.042702913E0,4.770895958E0,1.535057425E0
1.215118878E2,4.280383587E-1,3.980435133E0,5.894599438E0
1.216118878E2,-2.650605679E0,-2.893841743E0,1.703294945E1
1.217118878E2,-6.334159970E-1,2.755576611E0,4.834416866E0
1.218118878E2,-1.825578809E-1,-3.273846388E0,1.526071644E1
1.219118878E2,-1.094075322E0,8.337807655E-1,8.577676773E0
1.220118878E2,-4.198307514E0,-3.740940243E-2,1.552160931E1
1.221118878E2,-3.354949951E0,-2.006266117E0,1.390365314E1
1.222118878E2,1.137395501E0,2.340780973E0,1.667254639E1
1.223118878E2,1.311947703E0,1.345765829E0,5.077952385E0
1.224118878E2,4.457030773E0,5.386355400E0,3.252148867E0
1.225118878E2,2.726397216E-1,-3.582249403E0,1.373703194E1
1.226118878E2,-4.790647924E-1,2.910900354E0,1.033008289E1
1.227118878E2,-1.171886921E0,-9.742904305E-1,1.282903099E1
1.228118878E2,-4.697124362E-1,2.541893959E0,9.135974884E0
1.229118878E2,1.343670845E0,3.988590539E-1,4.710217953E0
1.230118878E2,-2.729838848E0,-7.948450565E0,1.979855156E1
1.231118878E2,-8.692448735E-1,1.834781528E0,1.271081638E1
1.232118878E2,-2.097620010E0,-8.249521255E-1,8.470835686E0
1.233118878E2,3.286041915E-1,-6.476315856E-1,2.031779528E0
1.234118878E2,-3.193790197E0,-1.975515723E0,1.330891800E1
1.235118878E2,-1.886780620E0,3.892448187E0,8.702624321E0
1.236118878E2,-1.157820940E0,-2.489445925E0,8.636334419E0
1.237118878E2,-2.971952438E0,-2.201393604E0,1.313668537E1
1.238118878E2,-2.133233786E0,4.055403709E0,2.779294014E0
1.239118878E2,-5.077952147E-1,7.814300060E0,1.136497632E-1
1.240118878E2,-2.980481863E0,2.327912331E0,5.686004639E0
1.241118878E2,-5.771522522E-1,4.159700871E0,4.834940910E0
1.242118878E2,-2.563741207E0,3.515885115E0,1.081775188E1
1.243118878E2,-9.522188902E-1,2.409689188E0,4.101566792E0
1.244118878E2,5.347299576E-1,8.533084393E-1,1.346992874E1
1.245118878E2,-2.244564006E-3,5.698199868E-1,8.285509109E0
1.246118878E2,-2.111835480E0,2.445228100E0,9.813757896E0
1.247118878E2,-1.962946177E0,-3.702558041E0,1.573192501E1
1.248118878E2,3.345672369E0,-9.868600368E-1,6.903081894E0
1.249118878E2,-2.878428936E0,-3.688043356E0,1.578616905E1
1.250118878E2,-2.231844902E0,9.396493435E-1,1.190531731E1
1.251118878E2,1.023670912E0,-6.709002256E-1,6.701220989E0
1.252118878E2,-2.321403027E0,-1.824232101E0,1.304024410E1
1.253118878E2,1.326911449E0,6.877344251E-1,7.711349487E0
1.254118878E2,4.275146425E-1,2.567182779E0,3.380612850E0
1.255118878E2,-3.854365349E0,-2.336666107E0,1.008549976E1
1.256118878E2,-7.621791363E-1,1.332298398E0,1.055775642E1
1.257118878E2,-2.188824177E0,-4.739621639E0,1.337715340E1
1.258118878E2,-4.236689568E0,3.220799923E0,9.611822128E0
1.259118878E2,-2.275763512E0,3.911152840E0,-2.762609482E0
1.260118878E2,-2.745550871E0,1.216478944E0,1.143493176E1
1.261118878E2,-5.172224045E-1,1.432106733E0,5.440598965E0
1.262118878E2,-5.014356375E-1,-1.161113024E0,1.191863537E1
1.263118878E2,1.753004551E0,8.847323656E-1,7.771429062E0
1.264118878E2,-2.567257643E0,7.236100674E0,5.094861031E0
1.265118878E2,-2.541295528E0,-2.402805805E0,1.270161438E1
1.266118878E2,1.631349206E0,-3.245190859E0,6.759654522E0
1.267118878E2,6.111947894E-1,5.970540643E-1,7.351695538E0
1.268118878E2,1.362450421E-1,2.871470928E0,6.309694290E0
1.269118878E2,1.101183176E0,1.681103706E0,1.030965710E1
1.270118878E2,-2.047491312E0,3.664101362E0,6.246622086E0
1.271118878E2,-2.538901329E0,-1.510516763E0,1.152733326E0
1.272118878E2,-1.971924424E0,-1.989132643E0,1.044702435E1
1.273118878E2,-8.436568379E-1,3.946841478E0,4.515239716E0
1.274118878E2,-2.011054516E0,-1.198148370E0,1.686019325E1
1.275118878E2,-9.956886172E-1,9.695768952E-1,4.736927986E0
1.276118878E2,-1.536927819E0,9.907506108E-1,1.178530788E1
1.277118878E2,-1.295936465E0,-5.607669353E-1,8.976610184E0
1.278118878E2,-4.211550355E-1,3.307888985E0,6.813748479E-1
1.279118878E2,-1.586981654E0,-1.025242090E0,8.614487648E0
1.280118878E2,-5.205892324E-1,-4.646247625E-1,7.308151245E0
1.281118878E2,-1.698461652E0,-5.880757794E-2,8.003816605E0
1.282118878E2,5.128080845E-1,4.774936140E-1,1.101961231E1
1.283118878E2,-9.968857169E-1,2.958185911E0,8.165050507E0
1.284118878E2,1.329230905E0,9.029881358E-1,1.409893036E1
1.285118878E2,6.352116168E-2,1.132457376E0,1.036210537E1
1.286118878E2,-1.791087270E0,1.833285093E0,1.295973873E1
1.287118878E2,-2.745850086E0,3.095777512E0,1.003133106E1
1.288118878E2,-3.334674120E0,-8.488941193E-1,7.060575485E0
1.289118878E2,-9.097966552E-2,-8.549544811E-1,1.054817963E1
1.290118878E2,-4.779500008E0,9.176526070E-1,1.040527534E1
1.291118878E2,-8.316109776E-1,2.232069254E0,5.698723793E0
1.292118878E2,-4.460697174E-1,4.494440556E0,3.157577991E0
1.293118878E2,-3.149123490E-1,-5.743091106E-1,7.751003742E0
1.294118878E2,1.006312892E-1,-1.366939545E-1,1.378708553E1
1.295118878E2,-9.494505823E-2,-2.429366559E-1,1.370306396E1
1.296118878E2,-1.397615194E0,5.428104401E-1,3.101837873E0
1.297118878E2,-9.008184075E-2,3.317166567E0,2.845957518E0
1.298118878E2,-3.638288736E0,1.937133670E0,1.137792015E1
1.299118878E2,6.854898930E-1,4.131943226E0,4.884021759E0
1.300118878E2,-1.199420214E0,-6.667178154E0,1.603075218E1
1.301118878E2,-9.344868660E-1,-7.900865376E-2,1.071592331E1
1.302118878E2,-1.115697980E0,-5.125387192E0,1.584056187E1
1.303118878E2,-1.626560807E0,2.710909605E0,8.976759911E0
1.304118878E2,1.662174582E0,2.272097349E0,5.807884216E0
1.305118878E2,-7.098808289E-1,4.899359703E0,-1.868225485E-1
1.306118878E2,-5.349544436E-2,-2.669983864E0,1.022226906E1
1.307118878E2,4.490624666E-1,-6.724788666E0,1.745814514E1
1.308118878E2,2.031405210E0,-4.989666045E-1,9.197101593E0
1.309118878E2,-3.029488087E0,2.377741635E-1,8.520589828E0
1.310118878E2,-1.493832231E0,2.268730640E0,7.516895294E0
1.311118878E2,-1.628655672E0,1.006836653E0,9.248577118E0
1.312118878E2,-9.935188890E-1,1.046116471E0,9.456572533E0
1.313118878E2,-1.582791805E0,-4.433388233E0,1.251322079E1
1.314118878E2,5.236567855E-1,8.128314614E-1,1.131626892E1
1.315118878E2,1.381529212E0,3.800346375E0,4.853495598E0
1.316118878E2,-1.712826848E0,-4.056301594E0,1.210134315E1
1.317118878E2,1.009380460E0,-4.996998310E0,1.115338898E1
1.318118878E2,-3.622651577E0,6.815843105E0,8.536825180E0
1.319118878E2,1.825055122E0,-5.256021023E-1,5.510404706E-1
1.320118878E2,-2.901473045E-1,5.853074789E-1,7.384466171E0
1.321118878E2,-1.638531804E0,7.832780480E-1,1.023820496E1
1.322118878E2,-2.439392328E0,-5.183446884E0,1.174961948E1
1.323118878E2,-4.301856518E0,7.710077763E-1,1.087700748E1
1.324118878E2,-2.778396368E0,4.244096756E0,1.075146198E1
1.325118878E2,-2.811167002E0,1.430311084E0,1.032484531E1
1.326118878E2,-3.279008865E0,-1.771035910E0,8.625860214E0
1.327118878E2,-2.485331059E0,2.337339401E0,6.961515427E0
1.328118878E2,-2.739265919E0,2.026691675E0,8.669703484E0
1.329118878E2,-2.888454676E0,2.511517525E0,9.947159767E0
1.330118878E2,1.132158160E0,-2.033874273E0,1.772442436E1
1.331118878E2,3.546411395E-1,-6.177339554E0,1.412870789E1
1.332118878E2,4.578910768E-2,6.908768415E-1,5.859659195E0
1.333118878E2,1.462333560E0,4.454936028E0,3.848679304E0
1.334118878E2,-1.840168476E0,1.167322993E0,9.327510834E0
1.335118878E2,5.918915272E-1,-6.872855425E-1,1.320694065E1
1.336118878E2,5.149778128E-1,-1.687986970E0,3.737573385E0
1.337118878E2,-1.550320387E0,1.329904199E0,9.112780571E0
1.338118878E2,-2.574440241E0,-1.957334757E0,1.072624779E1
1.339118878E2,7.974936366E-1,4.964302540E0,4.199429989E0
1.340118878E2,6.162824631E-1,1.127220035E0,1.002310085E1
1.341118878E2,-1.965489984E0,1.900397539E-1,8.132953644E0
1.342118878E2,-2.071059227E0,-4.768950641E-1,1.370448494E1
1.343118878E2,-1.385195374E0,3.088968992E0,8.904335022E0
1.344118878E2,-4.590208530E0,4.490175724E0,8.846874237E0
1.345118878E2,7.254431248E-1,-8.506149650E-1,1.188504124E1
1.346118878E2,4.331260622E-1,7.521534562E-1,9.069909096E0
1.347118878E2,1.044320822E0,-1.031751260E-1,7.786243439E0
1.348118878E2,-4.584896266E-1,-1.017909765E0,1.369191551E1
1.349118878E2,-5.569287300E0,1.360729575E0,1.074270821E1
1.350118878E2,-3.290156841E0,-1.908103943E0,1.421220589E1
1.351118878E2,-5.276222229E-1,-2.628833532E0,1.909263611E1
1.352118878E2,3.161842525E-1,2.282497168E0,1.260180569E1
1.353118878E2,-4.142268181E0,-1.105073690E0,8.476820946E0
1.354118878E2,-2.493635893E0,2.528351784E0,6.377480030E0
1.355118878E2,-1.220219851E0,3.534440279E0,6.169408798E0
1.356118878E2,-2.924143314E0,-1.299976707E0,1.594328880E1
1.357118878E2,-1.483432412E0,-2.131737232E0,1.203565216E1
1.358118878E2,3.608510792E-1,-2.409090757E0,2.084175110E1
1.359118878E2,-8.896703720E-1,4.432116032E0,2.136750221E0
1.360118878E2,1.447145343E0,4.859780312E0,2.374000549E0
1.361118878E2,4.400093853E-1,2.054524422E0,1.366670227E1
1.362118878E2,-1.624091744E0,-5.075558186E0,1.392976475E1
1.363118878E2,-1.603815913E0,-2.132560253E0,1.411120033E1
1.364118878E2,-1.574187577E-1,-2.398840427E0,6.232705593E0
1.365118878E2,-3.568108678E-1,-2.442983627E0,1.055925274E1
1.366118878E2,-1.422006130E0,-2.067168713E0,1.253933239E1
1.367118878E2,-5.892729163E-1,-4.050839424E0,1.525555420E1
1.368118878E2,-1.076717377E0,-2.866008997E0,1.169679737E1
1.369118878E2,-6.393266916E-1,3.383306265E0,9.686864853E0
1.370118878E2,-3.118223190E0,-1.680954099E0,7.985485554E0
1.371118878E2,-1.284788489E0,3.205387115E0,5.532626152E0
1.372118878E2,9.599252343E-1,3.973177671E0,2.596062899E0
1.373118878E2,1.916857809E-1,1.857376814E0,1.173398209E1
1.374118878E2,2.072406054E0,3.122637510E0,2.141463757E0
1.375118878E2,-3.046322346E0,2.365770489E-1,1.192933464E1
1.376118878E2,3.485808074E-1,-2.732607126E0,1.333308506E1
1.377118878E2,3.777451754E0,3.698368311E0,4.141370296E0
1.378118878E2,-2.700958773E-2,8.177695274E-1,1.305872440E1
1.379118878E2,-1.474379301E0,-6.321889400E0,1.417509556E1
1.380118878E2,-2.331503630E0,-3.787327766E0,1.215079784E1
1.381118878E2,-2.570325136E0,1.132158160E0,7.166967869E0
1.382118878E2,-1.174655199E0,9.231892228E-1,1.265821934E1
1.383118878E2,6.524199992E-2,5.310788155E0,2.657563984E-1
1.384118878E2,-2.095001221E0,6.040869951E-1,8.899696350E0
1.385118878E2,-3.156605363E-1,1.247079849E0,7.732523441E0
1.386118878E2,-1.021052241E0,3.292176962E0,7.105391979E0
1.387118878E2,-7.568669915E-1,3.187281132E0,9.019481659E0
1.388118878E2,-1.593939781E0,2.148571491E0,4.789151669E0
1.389118878E2,-1.602169871E0,-3.014449477E-1,1.283763504E1
1.390118878E2,-5.137807131E-1,-4.557437897E0,1.704731560E1
1.391118878E2,-1.315314621E-1,-5.302408338E-1,1.574479389E1
1.392118878E2,2.662277460E0,-3.906888247E0,1.497378635E1
1.393118878E2,-1.693897724E0,-2.590975165E-1,9.752331734E0
1.394118878E2,-2.074650526E0,2.858602047E0,8.280944824E0
1.395118878E2,-2.244264841E0,1.740958691E0,2.225635052E0
1.396118878E2,-7.997381687E-1,2.332476139E0,8.684068680E0
1.397118878E2,-2.706196010E-1,2.431311846E0,6.312761784E0
1.398118878E2,-3.135207176E0,-4.646247625E-1,9.152509689E0
1.399118878E2,-3.247734547E0,4.961234927E-1,9.004443169E0
1.400118878E2,1.364994287E0,-1.358709455E0,8.901342392E0
1.401118878E2,-2.606687248E-1,6.353612542E-1,1.672132874E1
1.402118878E2,-9.569324851E-1,-1.901070952E0,1.013465595E1
1.403118878E2,-1.531166792E0,5.005302906E0,7.710825920E0
1.404118878E2,-1.726144552E0,8.120683670E0,1.330652356E0
1.405118878E2,-2.861819267E0,4.835539341E0,8.414871216E0
1.406118878E2,-2.722731113E0,4.950760305E-1,8.964040756E0
1.407118878E2,-2.992377996E0,-1.376217008E0,8.880618095E0
1.408118878E2,-2.284966230E0,4.966846466E0,4.484564304E0
1.409118878E2,7.933785915E-1,7.032817841E0,-6.131401062E-1
1.410118878E2,2.006340981E0,-8.265532494E0,1.863272476E1
1.411118878E2,3.060762405E0,-5.185018063E0,6.509235859E0
1.412118878E2,-1.253140092E0,6.209886074E0,5.765387535E0
1.413118878E2,-6.906523705E-1,-3.956418335E-1,1.265889263E1
1.414118878E2,-4.372934818E0,-2.018237114E0,1.130736542E1
1.415118878E2,-5.464466095E0,1.604107666E1,1.605701256E1
1.416118878E2,-2.261099100E0,7.396736622E0,9.123404622E-1
1.417118878E2,1.545382380E0,2.445751905E0,7.850512505E0
1.418118878E2,-3.019013643E0,6.952836514E0,7.585354805E0
1.419118878E2,-7.363891125E0,1.791835546E0,1.117920113E1
1.420118878E2,-3.775730848E0,1.661875248E0,-2.472013235E0
1.421118878E2,-9.304092407E0,9.279027939E0,3.526883602E0
1.422118878E2,-3.709516227E-1,1.713051319E0,9.230994225E0
1.423118878E2,7.373393178E-1,3.218704939E0,1.427871990E1
1.424118878E2,1.192873573E1,-3.448099375E0,6.232930183E0
1.425118878E2,-1.710507512E0,4.804115295E-1,9.138967514E0
1.426118878E2,-4.332008660E-1,2.275471687E1,-1.366109085E1
1.427118878E2,-1.689034462E0,2.885611534E0,6.007874966E0
1.428118878E2,-2.810942531E-1,2.734402895E0,1.169619942E1
1.429118878E2,3.108047962E0,-4.285022259E0,1.252466774E1
1.430118878E2,-6.750152588E0,1.023214436E1,4.254197121E0
1.431118878E2,-2.309656441E-1,-4.893149808E-2,3.673154354E0
1.432118878E2,-3.583820537E-2,-3.532644510E0,1.497341251E1
1.433118878E2,-7.699602842E-1,1.459640026E0,1.138637447E1
1.434118878E2,-1.377638578E0,-1.417966008E0,7.019125938E0
1.435118878E2,2.821716309E0,7.120505571E-1,1.220032787E1
1.436118878E2,-2.915838480E0,1.882291436E0,-2.717867851E0
1.437118878E2,-3.162815332E0,2.435801029E0,1.010188484E1
1.438118878E2,1.116296574E-1,-3.859079123E0,1.544237614E1
1.439118878E2,-3.919682264E0,4.203769207E0,5.142446041E0
1.440118878E2,-7.655385017E0,-3.367594242E0,1.380586529E1
1.441118878E2,5.641113281E0,-5.373561382E0,1.734165192E1
1.442118878E2,6.141800880E0,2.811989784E0,1.521470261E1
1.443118878E2,-1.423951507E0,2.053446960E1,-2.166602850E0
1.444118878E2,-6.607248783E-1,9.649006844E0,-5.424887180E0
1.445118878E2,1.303044319E0,-4.118550777E0,1.231150913E1
1.446118878E2,-2.819172382E0,4.661211371E-2,5.889361858E0
1.447118878E2,-3.875164986E0,-4.898836136E0,1.928716469E1
1.448118878E2,-5.491400719E0,1.409286976E0,1.142198849E1
1.449118878E2,-3.460369587E0,-1.011550188E0,1.010270786E1
1.450118878E2,-1.353921056E0,-2.113257170E0,1.470084763E1
1.451118878E2,-1.747767210E0,1.500790358E0,8.769661903E0
1.452118878E2,-8.828619123E-2,1.339256525E0,8.741455078E0
1.453118878E2,-7.943512201E-1,-2.562618732E0,1.396530342E1
1.454118878E2,-8.028805852E-1,-3.718494475E-1,1.068315220E1
1.455118878E2,-7.042694092E-1,5.143044591E-1,7.100005150E0
1.456118878E2,-2.597484350E0,-3.907786012E-1,9.067889214E0
1.457118878E2,-2.091634512E0,4.108300686E0,2.231246233E0
1.458118878E2,1.194556952E0,5.918167233E-1,8.319551468E0
1.459118878E2,-4.304250717E0,-3.162590742E0,1.401475906E1
1.460118878E2,-2.929605007E0,6.339397430E-1,7.223381519E0
1.461118878E2,-1.131858826E0,-1.283441782E0,1.147847652E1
1.462118878E2,-2.776226521E0,1.865681648E0,1.201821899E1
1.463118878E2,-2.390236378E0,1.862988248E-2,1.040063667E1
1.464118878E2,-4.138826370E0,-2.543988943E0,1.692319107E1
1.465118878E2,-4.712836444E-1,-1.785176635E0,1.365899563E1
1.466118878E2,1.232639790E0,4.430769444E0,2.675595284E0
1.467118878E2,-1.368361115E0,-2.148197412E0,8.992846489E0
1.468118878E2,-3.827655077E0,-2.246808767E0,1.551330471E1
1.469118878E2,-1.250970364E-1,2.985270262E0,6.632237911E0
1.470118878E2,1.961449742E0,1.907430530E0,5.440149784E0
1.471118878E2,-2.601449788E-1,-2.167201519E0,1.342443848E1
1.472118878E2,7.814075947E-1,-2.361206532E0,1.136475182E1
1.473118878E2,1.876680017E0,-1.134455109E1,2.149529266E1
1.474118878E2,-1.125499249E0,1.405920148E0,4.833668709E0
1.475118878E2,1.580173075E-1,1.198537350E1,2.524236679E0
1.476118878E2,-3.665148735E0,-1.629927635E0,1.141517925E1
1.477118878E2,1.393200874E0,5.185018063E0,4.164564133E0
1.478118878E2,-5.441272259E0,2.139593363E0,1.129075623E1
1.479118878E2,-1.084049582E0,1.138966680E0,9.133804321E0
1.480118878E2,6.857891679E-1,1.290175438E0,6.423792839E0
1.481118878E2,-1.607257485E0,-6.393266916E-1,9.573888779E0
1.482118878E2,-2.600177765E0,-2.848351896E-1,1.126090336E1
1.483118878E2,-6.994061470E-1,-3.579331636E-1,7.485097408E0
1.484118878E2,-2.298433632E-1,3.792565167E-1,1.066893673E1
1.485118878E2,-4.449474216E-1,-4.179153919E0,1.325983715E1
1.486118878E2,1.197100850E-3,1.269675046E-1,8.740632057E0
1.487118878E2,-1.084423780E0,1.105672240E0,7.006556511E0
1.488118878E2,4.850502908E-1,-5.228038788E0,1.565314102E1
1.489118878E2,-2.412233114E0,-4.556540012E0,1.597246742E1
1.490118878E2,-2.150442123E0,9.724947810E-1,6.859911442E0
1.491118878E2,-1.550769329E0,1.547402501E0,3.197531223E0
1.492118878E2,-1.252691269E0,-3.096899986E0,1.378730965E1
1.493118878E2,-3.535861731E0,2.017563820E0,8.063446999E0
1.494118878E2,-1.854533672E0,5.522525311E0,7.901239872E0
1.495118878E2,1.379135013E0,-1.960252598E-2,1.302243710E1
1.496118878E2,3.521721065E-1,-5.279214978E-1,8.950872421E0
1.497118878E2,-3.544615507E0,-2.907383919E0,1.448245144E1
1.498118878E2,-6.196493506E-1,-1.614589810E0,1.147974777E1
1.499118878E2,8.851812482E-1,1.436595798E0,8.160337448E0
1.500118878E2,-3.442039013E0,7.784148455E-1,7.978078842E0
1.501118878E2,-2.263044357E0,1.690904945E-1,1.043273354E1
1.502118878E2,-1.088613570E-1,-2.564788461E-1,1.158718777E1
1.503118878E2,9.408464432E-1,-3.504512608E-1,8.879645348E0
1.504118878E2,2.922422588E-1,2.166004419E0,7.135095119E0
1.505118878E2,-1.729062498E-1,-4.855740443E-2,1.093484306E1
1.506118878E2,-1.529296339E-1,1.221791059E-1,7.666607857E0
1.507118878E2,-2.162562609E0,-1.902043581E0,1.161277580E1
1.508118878E2,-4.938040972E-1,7.252934575E-1,9.160215378E0
1.509118878E2,-3.578583300E-1,3.364601612E0,3.937937975E0
1.510118878E2,-5.120000362E0,1.501837850E0,8.987085342E0
1.511118878E2,-1.642422318E0,1.518298030E0,9.653870583E0
1.512118878E2,3.567360640E-1,2.922572136E0,5.511601925E0
1.513118878E2,-2.511143446E0,2.656067535E-2,1.104153442E1
1.514118878E2,1.314491510E0,4.513144970E0,5.955726147E0
1.515118878E2,1.352050543E0,3.661632240E-1,1.085553455E1
1.516118878E2,-3.381136417E0,1.975066781E0,9.071929932E0
1.517118878E2,-5.698948503E-1,3.895141602E0,5.143642902E0
1.518118878E2,-3.285368443E0,3.400963545E0,7.495422363E0
1.519118878E2,-3.622726500E-1,-1.389534831E0,1.406234360E1
1.520118878E2,-5.003133416E-1,-1.121010184E0,1.125095272E1
1.521118878E2,-4.070891142E-1,7.983166575E-1,1.018403625E1
1.522118878E2,-7.407809496E-1,4.342483521E0,7.132027626E0
1.523118878E2,6.073042154E-1,3.714828491E0,6.285901546E0
1.524118878E2,-4.713584669E-3,3.109020472E0,5.411045551E0
1.525118878E2,-3.377021551E0,1.225531995E-1,9.426870346E0
1.526118878E2,-2.214786291E0,-1.896432161E0,1.444017887E1
1.527118878E2,1.450287700E0,3.071162224E0,7.180659771E0
1.528118878E2,-9.455600381E-1,3.542595625E0,8.436867714E0
1.529118878E2,-9.245359302E-1,2.090212822E0,9.401506424E0
1.530118878E2,-4.345476031E-1,1.180117011E0,6.697928905E0
1.531118878E2,5.434089899E-1,7.080851793E-1,8.780509949E0
1.532118878E2,-5.476736426E-1,-2.482113838E0,1.603105164E1
1.533118878E2,-1.819668055E0,2.525134683E-1,9.838598251E0
1.534118878E2,-1.495478272E0,3.300781250E0,7.272013664E0
1.535118878E2,-1.264587402E0,-1.127145290E0,1.042278290E1
1.536118878E2,-3.642927408E-1,4.723311067E-1,8.719532967E0
1.537118878E2,-2.205284119E0,5.657049417E-1,9.692925453E0
1.538118878E2,-4.646995962E-1,4.664952457E-1,6.340369701E0
1.539118878E2,-3.066149473E0,1.070133328E0,1.056486416E1
1.540118878E2,-7.258920074E-1,1.132606983E0,1.014378357E1
1.541118878E2,1.351826191E0,1.273790121E0,6.423867702E0
1.542118878E2,-6.257096529E-1,2.565087795E0,6.954482555E0
1.543118878E2,-2.483909369E0,1.342174530E0,9.804255486E0
1.544118878E2,-2.409689188E0,-2.424578190E0,1.230043602E1
1.545118878E2,-7.720552087E-1,-2.518251181E0,1.770654297E1
1.546118878E2,-1.335515618E0,2.446200848E0,7.358354568E0
1.547118878E2,2.947636366E0,6.199336529E0,8.220790863E0
1.548118878E2,-2.778770328E-1,2.616114378E0,7.968202591E0
1.549118878E2,-8.419659615E0,2.339509249E0,8.365939140E0
1.550118878E2,-3.179499865E0,-1.871517539E0,1.013031673E1
1.551118878E2,-6.012439132E-1,5.159729004E0,1.051443577E1
1.552118878E2,-1.016862392E0,4.845041275E0,7.459958553E0
1.553118878E2,-4.798803329E0,-2.923245430E0,1.842974091E1
1.554118878E2,1.137994051E0,-4.748749435E-1,8.835726738E0
1.555118878E2,-1.370979786E0,1.064222693E0,1.041904163E1
1.556118878E2,-1.681702256E0,3.470470190E0,6.179285049E0
1.557118878E2,-3.404255629E0,5.401693344E0,3.551947832E0
1.558118878E2,1.287407160E0,2.290577650E0,7.198391914E0
1.559118878E2,2.309357166E0,-1.831250000E1,3.400776291E1
1.560118878E2,-8.708160520E-1,5.734786510E0,8.764200211E0
1.561118878E2,3.271975994E0,5.586645126E0,6.049848199E-1
1.562118878E2,-6.730624676E0,-5.404611111E0,2.018805885E1
1.563118878E2,4.464512825E0,-8.059705734E0,1.870627213E1
1.564118878E2,-1.666214705E0,4.691064358E0,6.757933617E0
1.565118878E2,-6.032640338E-1,1.447092915E1,-1.849969745E0
1.566118878E2,-3.484311700E-1,-3.879130602E0,1.368667889E1
1.567118878E2,-6.649895310E-1,4.956446648E0,1.010592556E1
1.568118878E2,-5.198185921E0,-3.400514603E0,2.041027069E1
1.569118878E2,-8.821137249E-2,3.777002811E0,8.951247215E0
1.570118878E2,-5.309366703E0,6.084639072E0,6.550460815E0
1.571118878E2,6.425812721E0,3.479897261E0,4.859780312E0
1.572118878E2,-2.139294147E0,7.131728172E0,1.245426273E1
1.573118878E2,-1.495627880E0,9.072527885E-1,1.352102947E1
1.574118878E2,-3.857208490E0,-3.908609152E0,1.426427937E1
1.575118878E2,-1.328482628E0,5.763516903E0,3.535861731E0
1.576118878E2,-3.005920172E0,3.064802647E0,6.472424984E0
1.577118878E2,-2.407669127E-1,5.777507782E0,1.504980206E0
1.578118878E2,4.181772709E0,-7.937526703E-1,5.356277943E0
1.579118878E2,2.873042107E0,8.058209419E0,6.651316643E0
1.580118878E2,-6.203227043E-1,-3.559654236E0,1.940395737E1
1.581118878E2,-2.639008760E0,-1.709272957E1,2.871740150E1
1.582118878E2,-4.014552593E0,-1.089743328E1,1.282723522E1
1.583118878E2,-2.866457939E0,-1.867926240E0,1.653285980E1
1.584118878E2,-4.585045815E0,-4.426130772E0,1.911455727E1
1.585118878E2,4.444835663E0,1.872490168E0,9.953145385E-1
1.586118878E2,4.538882732E0,9.912219048E0,3.135805607E0
1.587118878E2,-1.777245879E0,-4.631583214E0,9.557803154E0
1.588118878E2,-1.041133595E1,-1.735197663E0,1.205959415E1
1.589118878E2,-4.399719715E0,-5.666327000E0,1.139752197E1
1.590118878E2,-3.046097994E0,-6.581136703E0,1.241992092E1
1.591118878E2,4.993481636E0,-7.295581698E-1,1.222726250E1
1.592118878E2,-1.815553069E0,8.976909637E0,5.015777588E0
1.593118878E2,-2.538302660E0,1.058386803E0,1.033898640E1
1.594118878E2,-4.021510601E0,3.261426449E0,7.962216854E0
1.595118878E2,-7.953987122E-1,5.749825001E0,1.064102936E1
1.596118878E2,-3.992331326E-1,-7.394342422E-1,7.829862595E0
1.597118878E2,-5.071667194E0,-1.379337025E1,2.757641602E1
1.598118878E2,-3.290755510E0,8.847323656E-1,1.115937424E1
1.599118878E2,-4.240505219E0,1.156249762E0,2.004702568E1
1.600118878E2,-2.987514734E-1,-6.270564079E0,1.127893448E1
1.601118878E2,-2.443731785E0,3.874566555E0,8.979902267E0
1.602118878E2,-2.564564228E0,-4.329315186E0,1.841492844E1
1.603118878E2,1.162684202E0,-3.655796289E0,1.111253738E1
1.604118878E2,-2.893841743E0,-2.368164778E0,1.408321857E1
1.605118878E2,1.453205585E0,4.490400314E0,1.001801300E1
1.606118878E2,3.044751167E0,-7.847145557E0,1.391554928E1
1.607118878E2,-3.207257748E0,-3.317091703E0,1.606763649E1
1.608118878E2,-3.930007219E0,-2.616413534E-1,1.284287167E1
1.609118878E2,3.758896589E-1,1.775899053E0,1.355978584E1
1.610118878E2,1.909450650E0,1.527500629E0,2.601000786E0
1.611118878E2,5.010465622E0,6.024410129E-1,6.458284378E0
1.612118878E2,-4.736030102E-1,-3.203067780E0,1.853561020E1
1.613118878E2,-5.349843502E0,2.663549408E-2,1.047261238E1
1.614118878E2,-1.376217008E0,3.930680752E0,1.181703186E1
1.615118878E2,5.454290509E-1,9.939677715E-1,8.644041061E0
1.616118878E2,-1.733027935E0,2.319083691E0,6.071246624E0
1.617118878E2,-1.587954283E0,-1.259799004E0,1.043744755E1
1.618118878E2,1.941922069E0,7.526322842E0,-4.085330963E0
1.619118878E2,1.516577125E0,5.056853294E0,-2.549301147E0
1.620118878E2,-4.493392944E0,-1.848697782E0,1.683737373E1
1.621118878E2,-3.663577557E0,-8.912341118E0,3.143571854E1
1.622118878E2,-5.814917088E-1,-1.068188071E0,9.522562981E0
1.623118878E2,-2.494982719E0,-9.371803403E-1,1.128439617E1
1.624118878E2,-4.063409269E-1,5.854870796E0,3.576189041E0
1.625118878E2,-4.801870883E-1,-2.751162291E0,1.542666435E1
1.626118878E2,5.663034916E-1,-3.785232782E0,1.593086815E1
1.627118878E2,-6.706757545E-1,-5.354781747E-1,1.009028816E1
1.628118878E2,1.403376341E0,3.033752918E0,7.964461803E0
1.629118878E2,4.835539162E-1,2.402356863E0,8.865055084E0
1.630118878E2,-2.273444176E0,-1.871966481E0,1.379486656E1
1.631118878E2,-1.569324374E0,6.913257390E-2,8.358158112E0
1.632118878E2,-8.978256583E-2,9.153407097E0,4.924573600E-1
1.633118878E2,-1.770961046E0,3.860650212E-2,1.133893967E1
1.634118878E2,-1.652971864E0,1.939004064E0,9.672051430E0
1.635118878E2,-4.565817356E0,-3.250278473E0,9.682525635E0
1.636118878E2,-3.705775440E-1,1.351601720E0,1.388502312E1
1.637118878E2,-3.168950319E0,-1.214683294E0,1.254576683E1
1.638118878E2,5.642235756E0,1.761384249E0,1.378386855E0
1.639118878E2,2.584989667E-1,2.182015657E0,5.634603977E0
1.640118878E2,1.738040805E0,6.075062275E0,2.971428871E0
1.641118878E2,1.270123959E0,-5.243301988E-1,1.068756676E1
1.642118878E2,5.095160380E-2,2.068739891E0,4.902726650E0
1.643118878E2,-2.457348824E0,5.854421616E0,2.296787500E0
1.644118878E2,-5.325602293E-1,9.362675667E0,-1.636212349E0
1.645118878E2,-5.175964832E-1,1.154454127E-1,6.482824802E0
1.646118878E2,-8.604910374E-1,-3.806032538E-1,1.395827103E1
1.647118878E2,2.983624220E0,5.274426460E0,4.859032154E0
1.648118878E2,3.777601421E-1,2.831143618E0,9.880271912E0
1.649118878E2,1.070058465E0,7.251513004E0,-1.601646066E0
1.650118878E2,3.758896589E-1,3.762637675E-1,7.189263821E0
1.651118878E2,-2.117372155E-1,-5.843348503E-1,1.009971523E1
1.652118878E2,-2.232892275E0,-6.340968609E0,1.545404816E1
1.653118878E2,-3.127874851E0,2.611026525E0,3.412485600E0
1.654118878E2,-2.581024170E0,5.312284470E0,6.471452236E0
1.655118878E2,8.627356291E-1,8.925883174E-1,3.690212965E0
1.656118878E2,1.227327704E0,-9.208024979E0,1.933370209E1
1.657118878E2,3.053355455E0,-3.339312792E0,1.483020878E1
1.658118878E2,-1.477297306E0,2.975094795E0,9.578453064E0
1.659118878E2,-2.603245497E0,1.176076770E0,1.359996319E1
1.660118878E2,-1.040430307E0,1.799766302E0,1.000222683E1
1.661118878E2,-3.808276951E-1,5.074061394E0,2.947786093E0
1.662118878E2,-2.632873654E-1,-3.320458412E0,1.852274132E1
1.663118878E2,-1.150039792E0,1.456722170E-1,7.153275967E0
1.664118878E2,-1.235258460E0,-2.388964415E0,1.065210247E1
1.665118878E2,-2.246958256E0,-1.752031922E0,9.266907692E0
1.666118878E2,-2.108019829E0,4.469749928E0,7.745317459E0
1.667118878E2,1.412279725E0,1.434949875E0,7.702595711E0
1.668118878E2,-3.603198767E0,-4.566939771E-1,1.241363621E1
1.669118878E2,-1.151910305E0,-4.668917656E0,1.307608223E1
1.670118878E2,2.053476810E0,1.411007762E0,7.735740662E0
1.671118878E2,-3.752836227E0,-3.666121280E-3,1.424116039E1
1.672118878E2,-2.371980429E0,-5.127332807E-1,8.159289360E0
1.673118878E2,-8.481459618E-1,-2.046069860E0,1.384619236E1
1.674118878E2,-8.572738171E-1,3.964723110E0,6.546495438E0
1.675118878E2,-2.082506657E0,-2.466027737E-1,8.612841606E0
1.676118878E2,-3.919757009E-1,2.186729193E0,6.732046127E0
1.677118878E2,2.573766746E-2,1.860145092E0,7.847669601E0
1.678118878E2,-5.708674714E-2,2.297984600E0,8.912940025E0
1.679118878E2,-2.525059700E0,-4.017021656E-1,1.036756706E1
1.680118878E2,-2.327388525E0,-2.019733667E0,1.204926872E1
1.681118878E2,-1.036315203E0,1.217301935E-1,1.213531017E1
1.682118878E2,5.416133404E-1,-1.581445098E0,1.048286247E1
1.683118878E2,-2.392031908E0,2.004395723E-1,1.053186893E1
1.684118878E2,-2.617760181E0,1.589899510E-1,1.208211422E1
1.685118878E2,-4.751742184E-1,4.355052948E0,5.454514980E0
1.686118878E2,1.832087994E0,-1.350554228E0,6.110152245E0
1.687118878E2,7.026981711E-1,2.628683805E0,1.300941849E1
1.688118878E2,-7.125743032E-1,1.784652948E0,7.272163391E0
1.689118878E2,-3.449520826E0,-2.933121443E0,1.463553047E1
1.690118878E2,-9.920225143E-1,-2.078915358E0,9.975890160E0
1.691118878E2,-2.680533171E0,-2.011952400E0,1.365428162E1
1.692118878E2,-5.098153353E-1,-3.728221059E-1,1.086802959E1
1.693118878E2,1.405770540E0,3.374627352E0,8.719383240E0
1.694118878E2,3.067570925E-2,4.391115606E-1,1.226841354E1
1.695118878E2,-1.251194835E0,4.570680559E-1,1.416641617E1
1.696118878E2,1.855955243E0,-3.288435936E0,1.082904911E1
1.697118878E2,-1.984269500E0,-3.860650361E-1,9.960777283E0
1.698118878E2,-3.807753325E0,-3.051484823E0,1.082418633E1
1.699118878E2,-1.936759591E0,-9.053075314E-2,1.248261929E1
1.700118878E2,3.460369706E-1,-3.749693871E0,1.821149445E1
1.701118878E2,-1.992574334E0,-3.530624390E0,1.361911678E1
1.702118878E2,1.634416699E0,3.807154894E0,8.787842751E0
1.703118878E2,2.934393585E-1,-4.383708477E0,1.560428429E1
1.704118878E2,-6.618471146E-1,5.964555144E-1,1.139176178E1
1.705118878E2,-3.498228073E0,2.264765203E-1,1.109742451E1
1.706118878E2,-3.712134838E0,7.459434867E-2,8.073621750E0
1.707118878E2,-3.343876839E0,4.905869067E-1,1.037205601E1
1.708118878E2,-2.871321201E0,-8.918401599E-2,1.344463921E1
1.709118878E2,-4.834791124E-1,4.476035118E0,8.589872360E0
1.710118878E2,2.460640907E0,-5.660042167E-1,6.225747585E0
1.711118878E2,-3.654299974E0,9.791536927E-1,9.920524597E0
1.712118878E2,-2.157250643E0,-5.122095346E-1,9.107169151E0
1.713118878E2,-2.346991062E0,-9.445125461E-1,1.487712002E1
1.714118878E2,1.703250051E0,3.477278709E0,7.136366844E0
1.715118878E2,1.952770799E-1,-2.482263327E0,1.172141266E1
1.716118878E2,9.853636473E-2,1.920000076E0,5.135338306E0
1.717118878E2,-1.062576652E0,3.436427712E-1,8.650026321E0
1.718118878E2,-2.532167673E0,8.094646335E-1,1.123120022E1
1.719118878E2,5.476736277E-2,3.281477928E0,9.551816940E0
1.720118878E2,2.079962753E-2,-3.875688791E0,1.155381870E1
1.721118878E2,-1.388262868E0,1.226729155E0,9.630152702E0
1.722118878E2,-1.968258262E0,9.335141778E-1,8.478167534E0
1.723118878E2,3.021183312E-1,4.841374874E0,1.013757420E1
1.724118878E2,2.937386334E-1,4.234295368E0,6.471228123E0
1.725118878E2,-3.942202628E-1,2.394126892E0,7.181258202E0
1.726118878E2,-3.217881918E0,2.852092743E0,9.232640266E0
1.727118878E2,1.635763526E0,-1.071330428E0,9.996540070E0
1.728118878E2,-9.170540571E-1,-4.838158131E0,8.949525833E0
1.729118878E2,-4.444237053E-2,3.306542158E0,6.056208134E0
1.730118878E2,-3.455207109E0,1.139639974E0,9.083975792E0
1.731118878E2,-4.244246006E0,1.626860023E0,1.118945122E1
1.732118878E2,-1.006312847E0,-1.014468193E0,1.081647968E1
1.733118878E2,1.129015759E-1,-5.389946699E-1,8.441282272E0
1.734118878E2,4.866214991E-1,-7.309797406E-2,1.255317402E1
1.735118878E2,-1.494505644E0,1.241992135E-2,9.968857765E0
1.736118878E2,-3.356371522E-1,-9.953145385E-1,7.650596619E0
1.737118878E2,-4.118774891E0,-1.421706915E0,1.387050819E1
1.738118878E2,-3.422436476E0,-1.355567098E0,9.876530647E0
1.739118878E2,-2.128594965E-1,-1.403825164E0,1.359704590E1
1.740118878E2,4.920832813E-1,5.722141862E-1,9.430460930E0
1.741118878E2,-8.785971999E-1,2.800542593E0,9.318457603E0
1.742118878E2,-4.047173500E0,-5.626897812E0,1.687448311E1
1.743118878E2,-1.885433793E-1,1.577629328E0,8.453626633E0
1.744118878E2,-1.985691071E0,-1.257778883E0,9.398887634E0
1.745118878E2,-2.789244950E-1,-6.021417379E-1,1.322803879E1
1.746118878E2,2.794183016E0,7.156044483E0,1.953444123E0
1.747118878E2,-2.105849981E0,-6.872106791E-1,1.014236259E1
1.748118878E2,-2.585289001E0,-1.698611259E0,1.467668056E1
1.749118878E2,-2.652625799E0,-1.415272474E0,1.466433620E1
1.750118878E2,-2.337414265E0,7.364414930E-1,8.200140953E0
1.751118878E2,-2.895412922E0,-1.135450125E0,1.538648701E1
1.752118878E2,-5.802198052E-1,3.268983126E0,1.074345684E1
1.753118878E2,-4.908113480E-1,-2.879027426E-1,9.811812401E0
1.754118878E2,-2.748618364E0,-7.316530943E-1,8.328754425E0
1.755118878E2,1.870544910E0,3.356970072E0,5.126135349E0
1.756118878E2,5.039794445E-1,-1.022324085E0,1.279147148E1
1.757118878E2,3.049315214E0,-2.659284830E0,9.621025085E0
1.758118878E2,7.617302537E-1,4.390367270E-1,9.812860489E0
1.759118878E2,-7.984662652E-1,-2.031031132E0,1.286973190E1
1.760118878E2,-9.737667441E-1,-5.218087673E0,1.887768173E1
1.761118878E2,-2.404227495E0,5.691541195E0,7.406013966E0
1.762118878E2,-1.127369761E0,-1.818620682E0,1.491557693E1
1.763118878E2,-3.423334360E0,5.476137638E0,3.299584150E0
1.764118878E2,-1.049558163E0,2.218377441E-1,4.504166603E0
1.765118878E2,-2.456001997E0,-1.278503656E0,1.224798775E1
1.766118878E2,5.139303803E-1,3.652953148E0,5.685181618E0
1.767118878E2,-4.713435173E0,6.673837304E-1,8.482731819E0
1.768118878E2,-1.366864681E0,1.083226681E0,1.067514706E1
1.769118878E2,2.980781198E-1,1.322048306E0,1.047837353E1
1.770118878E2,-4.356698990E-1,-8.910919428E-1,1.506386852E1
1.771118878E2,-1.050156713E0,5.689221859E0,1.374795556E0
1.772118878E2,-1.498994708E0,3.183540106E0,8.951920509E0
1.773118878E2,-8.274959773E-2,1.230245590E0,8.151358604E0
1.774118878E2,-3.119944096E0,2.882693768E0,8.116343498E0
1.775118878E2,-3.463437319E0,6.417208910E-1,1.336697769E1
1.776118878E2,7.863456011E-2,-1.620949388E0,1.560563087E1
1.777118878E2,-1.435249090E0,4.863371849E0,6.664035797E0
1.778118878E2,1.806874126E-1,-1.166499972E0,1.480798817E1
1.779118878E2,-7.202806473E-1,-1.210568190E0,9.548600197E0
1.780118878E2,-3.595043421E-1,-2.920701504E0,1.075168610E1
1.781118878E2,-2.321552753E0,-3.357194424E0,1.187883186E1
1.782118878E2,-3.234491587E0,4.112565041E0,8.260444641E0
1.783118878E2,-2.207304239E0,1.171063900E0,1.405568504E1
1.784118878E2,-3.725976348E-1,1.196726799E0,1.224252605E1
1.785118878E2,-1.379658699E0,-2.156651974E0,1.314282036E1
1.786118878E2,9.818471670E-1,-9.388263226E-1,1.190045452E1
1.787118878E2,8.855553269E-1,5.431022167E0,3.571999311E0
1.788118878E2,-3.016993523E0,8.172533035E0,2.135478258E0
1.789118878E2,-4.150498390E0,1.081356168E0,1.204859543E1
1.790118878E2,-1.231143355E0,2.966341019E0,4.861127377E0
1.791118878E2,1.099312663E0,-1.338957310E0,1.009589958E1
1.792118878E2,-2.538976192E0,6.135815144E0,6.725013256E0
1.793118878E2,-1.262417674E0,1.717316031E0,6.076783180E0
1.794118878E2,-2.855085611E0,-2.073977292E-1,8.794426918E0
1.795118878E2,-3.215562582E0,7.593360543E-1,1.394772148E1
1.796118878E2,-1.417068094E-1,-1.148244143E0,1.166133308E1
1.797118878E2,1.323544621E0,3.241524696E0,1.991078019E0
1.798118878E2,-1.555258512E0,-6.180033088E-1,1.131784058E1
1.799118878E2,-5.189132690E0,5.289689451E-2,1.084348869E1
1.800118878E2,-2.458545864E-1,7.713070512E-1,9.910722733E0
1.801118878E2,-4.525041282E-1,2.328361034E0,7.088407993E0
1.802118878E2,-3.357867897E-1,1.236380696E0,6.191854477E0
1.803118878E2,-2.366593599E0,-1.103951454E0,1.277852821E1
1.804118878E2,-6.952162981E-1,8.983493447E-1,8.052747726E0
1.805118878E2,-8.901193142E-1,-6.239888072E-2,1.102125835E1
1.806118878E2,-8.550292850E-1,4.608838260E-2,8.694244385E0
1.807118878E2,-2.831816912E0,1.394547701E0,8.566079140E0
1.808118878E2,-3.630208373E-1,-1.872789502E0,1.274358749E1
1.809118878E2,-1.733701348E0,-1.746944189E0,1.063047981E1
1.810118878E2,-8.824129701E-1,-8.405892253E-1,1.000978279E1
1.811118878E2,-1.882665515E0,-1.685892105E0,1.137268257E1
1.812118878E2,-1.796324611E0,3.411587715E0,6.291812420E0
1.813118878E2,-4.518307447E-1,-3.836259365E0,1.288821220E1
1.814118878E2,-3.657143116E-1,3.127949715E0,6.530035496E0
1.815118878E2,-3.142389655E-2,8.821136951E-1,8.273388863E0
1.816118878E2,-2.693925858E0,-7.734019756E-1,1.163005924E1
1.817118878E2,-7.460182905E-1,-9.837176204E-1,1.166918945E1
1.818118878E2,-1.585485220E0,1.253364563E0,9.525257111E0
1.819118878E2,-1.915136933E0,-1.056591153E0,1.164270401E1
1.820118878E2,-4.316072464E0,-1.979705542E-1,9.634941101E0
1.821118878E2,-2.175730705E0,1.891793489E0,6.803348541E0
1.822118878E2,-4.354454279E-1,-2.720411718E-1,1.079597950E1
1.823118878E2,-7.286603451E-1,-3.312826872E0,1.298218441E1
1.824118878E2,-8.501660824E-1,5.978546143E0,2.107570887E0
1.825118878E2,-5.484966636E-1,2.767397881E0,6.941463947E0
1.826118878E2,-1.271919627E-2,2.919429839E-1,1.104086113E1
1.827118878E2,-1.614739418E0,-1.823633552E0,1.453542328E1
1.828118878E2,-1.507823348E0,2.614617825E0,8.819116592E0
1.829118878E2,-2.103680372E0,-1.867103219E0,8.439187050E0
1.830118878E2,-5.550807118E-1,-9.840916991E-1,1.162302589E1
1.831118878E2,-1.573215008E0,7.264157534E-1,1.223526859E1
1.832118878E2,-1.258751512E0,-1.719336063E-1,9.137695312E0
1.833118878E2,1.857750863E-1,5.686229095E-3,1.051196671E1
1.834118878E2,-6.588543653E-1,4.551976025E-1,9.589450836E0
1.835118878E2,-6.779331565E-1,-1.815328598E0,1.025571251E1
1.836118878E2,-4.568436146E-1,-1.640926003E0,1.335485744E1
1.837118878E2,-1.870993853E0,-2.092532396E0,1.360722065E1
1.838118878E2,-1.845854640E0,1.397989392E0,8.462006569E0
1.839118878E2,-5.552303195E-1,2.690484226E-1,7.980921745E0
1.840118878E2,1.210568249E-1,-3.264344335E-1,7.351845264E0
1.841118878E2,-6.165069342E-1,-2.097769499E0,1.155179882E1
1.842118878E2,4.646247625E-1,-4.147206247E-1,7.551162720E0
1.843118878E2,-6.105214357E-1,2.626514196E0,6.741847515E0
1.844118878E2,9.187749028E-2,1.569773316E0,9.025691032E0
1.845118878E2,-1.443404317E0,-1.427542716E-1,1.093521690E1
1.846118878E2,-5.389871597E0,2.859275341E0,7.768511295E0
1.847118878E2,9.239373803E-1,5.291934013E0,7.047183037E0
1.848118878E2,-6.175244808E0,2.472462177E0,8.265458107E0
1.849118878E2,-3.830872297E0,1.663670897E0,4.524442673E0
1.850118878E2,-3.265092671E-1,2.240224600E0,7.832855225E0
1.851118878E2,6.876596212E-1,4.702361822E-1,7.460182667E0
1.852118878E2,-1.108515382E0,-1.601122320E-1,7.626654625E0
1.853118878E2,-1.535655975E0,-1.053822875E0,1.222823524E1
1.854118878E2,-1.644367695E0,-1.926733851E0,1.230432606E1
1.855118878E2,-2.254215717E0,-7.141454816E-1,1.261774254E1
1.856118878E2,-1.983521342E0,-2.615216494E0,1.246398926E1
1.857118878E2,-5.695207119E-1,2.351779461E0,7.355660915E0
1.858118878E2,1.478419602E-1,2.468421936E0,8.643367767E0
1.859118878E2,-5.986252427E-1,1.904512644E0,9.018508911E0
1.860118878E2,-1.703175187E0,1.888202190E0,8.608352661E0
1.861118878E2,-2.705447912E0,2.980556726E0,6.998700619E0
1.862118878E2,-3.644423783E-1,3.824587584E0,8.229768753E0
1.863118878E2,-1.451484710E-1,-5.111620426E-1,8.362497330E0
1.864118878E2,-2.321777105E0,3.030760050E0,7.876399994E0
1.865118878E2,-6.542156339E-1,-2.585737705E-1,9.166201591E0
1.866118878E2,-1.339705467E0,3.604021668E-1,9.857227325E0
1.867118878E2,-4.878185987E-1,2.041805029E0,7.701922417E0
1.868118878E2,5.130325556E-1,5.694459081E-1,1.057159805E1
1.869118878E2,-4.468179047E-1,-5.017349124E-1,9.768342972E0
1.870118878E2,-8.593688011E-1,-9.540894032E-1,1.153907967E1
1.871118878E2,-1.524882078E0,8.861538768E-1,1.027366924E1
1.872118878E2,4.706102610E-2,1.137769580E0,1.115885067E1
1.873118878E2,-1.243039608E0,-1.775300503E0,1.558976936E1
1.874118878E2,-1.237727404E0,-2.502689064E-1,1.204500389E1
1.875118878E2,-1.209445953E0,2.057517022E-1,1.020064640E1
1.876118878E2,-5.473743677E-1,2.254589796E0,6.808885098E0
1.877118878E2,-1.729586244E0,2.866308391E-1,8.324489594E0
1.878118878E2,-6.953659654E-1,1.419462323E0,7.382670403E0
1.879118878E2,-1.015365958E0,1.091830850E0,6.887370110E0
1.880118878E2,9.468319416E-1,3.584943056E0,6.549637794E0
1.881118878E2,1.221791059E-1,5.386953708E-3,8.601992607E0
1.882118878E2,-5.050269365E-1,2.734103441E0,5.207239151E0
1.883118878E2,-3.354426146E0,-2.343324870E-1,1.032304955E1
1.884118878E2,8.592191339E-1,3.854814291E0,7.205200195E0
1.885118878E2,1.126322269E0,1.728688478E0,8.648080826E0
1.886118878E2,-2.865560167E-2,8.212860227E-1,8.370203972E0
1.887118878E2,-1.583016276E0,-2.248305082E-1,8.994117737E0
1.888118878E2,-4.335749745E-1,-1.320252657E0,1.237188721E1
1.889118878E2,-3.052607179E-1,-1.236530304E0,1.071517467E1
1.890118878E2,-1.264288187E0,7.935281992E-1,8.777966499E0
1.891118878E2,-5.434089899E-1,1.289127946E0,7.591340065E0
1.892118878E2,-1.534309149E0,-1.444751024E-1,9.371129990E0
1.893118878E2,-1.215955138E0,1.213560939E0,9.121684074E0
1.894118878E2,5.315876007E-1,8.201637268E-1,9.318307877E0
1.895118878E2,-7.549217343E-2,2.828150801E-2,1.014161396E1
1.896118878E2,-1.682001472E0,9.285013378E-2,8.675988197E0
1.897118878E2,-2.326640368E0,2.187252998E0,7.758560181E0
1.898118878E2,-1.627907515E0,1.160514474E0,1.163544655E1
1.899118878E2,-2.502688885E0,8.414870501E-1,1.052678108E1
1.900118878E2,-1.707589507E0,2.956315279E0,8.118513107E0
1.901118878E2,4.516063035E-1,1.388487339E0,8.593462944E0
1.902118878E2,-1.371129394E0,1.579424888E-1,1.130751514E1
1.903118878E2,-2.477250546E-1,-1.189394474E0,9.941174507E0
1.904118878E2,-2.284218073E0,-5.304653049E-1,1.001509571E1
1.905118878E2,-3.355249166E0,-5.678747296E-1,1.184658527E1
1.906118878E2,-3.681534052E0,-7.825298905E-1,1.054855347E1
1.907118878E2,-1.506326914E0,-2.234089524E-1,8.193482399E0
1.908118878E2,-5.603928566E-1,1.615861654E0,6.551957607E0
1.909118878E2,-2.051531523E-1,1.153182268E0,8.745121002E0
1.910118878E2,-1.461959481E-1,1.773953795E0,8.212784767E0
1.911118878E2,-7.189338803E-1,-2.701706886E-1,8.871489525E0
1.912118878E2,-2.174234390E0,1.409137368E0,8.350601196E0
1.913118878E2,-5.192424655E-1,7.122749835E-2,1.017655468E1
1.914118878E2,-1.318457007E0,-3.592799008E-1,1.126666451E1
1.915118878E2,-1.658732891E0,1.194407344E0,1.030636501E1
1.916118878E2,-6.105214357E-1,-3.319710195E-1,1.018493366E1
1.917118878E2,-1.725097179E0,-1.828047872E0,1.100651932E1
1.918118878E2,-1.714697361E0,-2.449043989E0,1.244693089E1
1.919118878E2,-1.595585823E0,-1.071180820E0,1.153137302E1
1.920118878E2,-6.546645612E-2,-5.415384769E-1,9.667860985E0
1.921118878E2,-5.135562420E-1,-1.330053806E0,1.218072605E1
1.922118878E2,-4.459948838E-1,-3.348665237E0,1.398243713E1
1.923118878E2,-4.309563041E-1,-6.494271755E-2,9.915362358E0
1.924118878E2,-1.003320098E0,-1.551741958E-1,8.685041428E0
1.925118878E2,-1.043497801E0,5.945101976E-1,7.866224289E0
1.926118878E2,-1.223661542E0,1.985990286E0,8.848146439E0
1.927118878E2,-8.909423351E-1,1.102978826E0,8.776096344E0
1.928118878E2,-7.062146664E-1,2.893916368E0,1.008392906E1
1.929118878E2,-9.006687403E-1,1.584288120E0,8.446893692E0
1.930118878E2,-9.195979238E-1,2.126799345E0,7.434220791E0
1.931118878E2,-1.712602377E0,2.802787066E0,5.663035393E0
1.932118878E2,-1.548524737E0,8.899696469E-1,9.254562378E0
1.933118878E2,1.512836218E-1,3.679439068E0,6.508861542E0
1.934118878E2,-2.456600666E0,1.144727707E0,1.053261662E1
1.935118878E2,-9.570072889E-1,2.976291895E0,5.298817158E0
1.936118878E2,-7.202806473E-1,1.596034765E0,7.408034325E0
1.937118878E2,8.504653573E-1,1.166874051E0,1.322362518E1
1.938118878E2,8.676736355E-1,1.489642382E0,7.773823261E0
1.939118878E2,3.734206557E-1,2.460042238E-1,8.227225304E0
1.940118878E2,-9.998036623E-1,1.389011025E0,8.030900955E0
1.941118878E2,-1.461211205E0,5.334580690E-2,1.060534096E1
1.942118878E2,-1.675192952E0,2.149544209E-1,8.910245895E0
1.943118878E2,-1.481337428E0,-1.086518645E0,9.956960678E0
1.944118878E2,-1.491737247E0,-3.568856791E-2,1.143313599E1
1.945118878E2,-6.135141850E-1,-1.170839429E0,1.296452713E1
1.946118878E2,2.606687248E-1,-6.299743056E-2,1.209737778E1
1.947118878E2,-7.316530943E-1,-7.182604820E-2,1.122820759E1
1.948118878E2,-9.467571378E-1,-2.024073124E0,1.314057636E1
1.949118878E2,-1.082553267E0,4.927566350E-1,9.230919838E0
1.950118878E2,-7.421277165E-1,-5.484966636E-1,1.161457157E1
1.951118878E2,-5.481225252E-1,-2.308160067E-1,1.003776550E1
1.952118878E2,1.501613408E-1,2.168248892E-1,1.000424671E1
1.953118878E2,-3.410989344E-1,-1.582342863E0,1.154573822E1
1.954118878E2,-6.815993041E-2,4.373907149E-1,7.291541100E0
1.955118878E2,-1.390133381E0,1.420958757E0,7.557896137E0
1.956118878E2,-1.443329573E0,6.262333989E-1,8.948927879E0
1.957118878E2,-1.427393079E0,1.842038929E-1,8.116343498E0
1.958118878E2,-9.662848711E-1,7.415291667E-1,9.032649994E0
1.959118878E2,-1.223287433E-1,1.431882262E0,7.750180721E0
1.960118878E2,-1.278578520E0,-2.359036803E-1,8.814477921E0
1.961118878E2,-1.442880630E0,1.567902803E0,8.819341660E0
1.962118878E2,-1.160364866E0,1.005564690E0,8.286256790E0
1.963118878E2,-8.767267466E-1,2.250474691E0,8.391377449E0
1.964118878E2,-6.853402257E-1,2.585064411E0,3.499275446E0
1.965118878E2,-2.060958862E0,4.930559099E-1,1.098833847E1
1.966118878E2,-1.495178938E0,1.029431939E0,1.145640469E1
1.967118878E2,-7.478139400E-1,-8.821884990E-1,1.291993523E1
1.968118878E2,-9.115175009E-1,7.208043337E-1,6.361393929E0
1.969118878E2,-1.614664555E0,-5.506663918E-1,1.098998451E1
1.970118878E2,-1.187898159E0,-3.063081801E-1,1.163926220E1
1.971118878E2,-2.959308147E0,-3.581501245E0,1.383115387E1
1.972118878E2,-1.577255130E0,1.458592534E0,7.841534138E0
1.973118878E2,1.084872615E-2,1.547851443E0,6.717606068E0
1.974118878E2,-1.149890184E0,-1.178470969E0,1.176226425E1
1.975118878E2,-1.667411804E0,-1.923965573E0,1.019518375E1
1.976118878E2,-1.419836402E0,-6.338648796E-1,1.054062271E1
1.977118878E2,1.137994006E-1,5.643582344E-1,7.753173351E0
1.978118878E2,-6.132149100E-1,5.505167246E-1,8.181061745E0
1.979118878E2,-1.444451809E0,2.794482410E-1,9.043348312E0
1.980118878E2,-1.152359247E0,-1.890222192E0,1.388741779E1
1.981118878E2,-1.453654528E0,-1.234061360E0,1.100165653E1
1.982118878E2,-3.946691751E-1,-2.132335864E-2,8.138864517E0
1.983118878E2,-1.642572045E0,-1.816600561E0,1.258033276E1
1.984118878E2,1.333271116E-1,1.086294174E0,7.315258980E0
1.985118878E2,-1.143231317E-1,-1.807322979E0,1.351863575E1
1.986118878E2,-1.760486364E-1,-1.574262381E0,1.201470280E1
1.987118878E2,2.218377441E-1,-1.860294700E0,1.280463982E1
1.988118878E2,-5.067477822E-1,1.694645882E-1,1.074375534E1
1.989118878E2,-7.069628835E-1,2.463783175E-1,1.051705456E1
1.990118878E2,-1.776048779E0,-5.582979321E-1,1.097307491E1
1.991118878E2,-1.370081902E0,-7.064391375E-1,1.037938786E1
1.992118878E2,-1.059883118E0,9.592518806E-1,1.012919426E1
1.993118878E2,-1.122282028E0,1.303568006E0,8.935983658E0
1.994118878E2,-9.319429994E-1,2.805705182E-2,8.590545654E0
1.995118878E2,-1.982099771E0,-6.920739412E-1,1.291798973E1
1.996118878E2,-9.269301295E-1,-6.637924314E-1,9.528473854E0
1.997118878E2,-2.663549483E-1,-4.335001409E-1,1.180333996E1
1.998118878E2,-1.251942992E0,-5.367500782E-1,1.119259357E1
1.999118878E2,-3.949684501E-1,2.396970034E0,7.302539825E0
2.000118878E2,1.291821480E0,3.050362468E-1,9.823260307E0
2.001118878E2,-1.442581296E0,-2.362553358E0,1.166799259E1
2.002118878E2,-9.526678324E-1,-1.290399909E0,1.068038368E1
2.003118878E2,-1.316810958E-2,2.677016854E-1,1.090499020E1
2.004118878E2,-1.406144619E0,-7.286603451E-1,8.817620277E0
2.005118878E2,-1.703025579E0,-1.228449941E0,1.065629292E1
2.006118878E2,-1.418265224E0,9.348609447E-1,9.336264610E0
2.007118878E2,-9.240122139E-2,1.241767645E0,9.560646057E0
2.008118878E2,3.292027395E-3,-1.321300030E0,1.233702183E1
2.009118878E2,-2.341229916E0,-2.740762472E0,1.397929478E1
2.010118878E2,-1.772382617E0,1.378162354E-1,1.160140324E1
2.011118878E2,-1.678185701E0,-1.768641710E0,1.230140877E1
2.012118878E2,-2.510170937E-1,-3.022679687E-1,1.055685806E1
2.013118878E2,-5.204395652E-1,-4.452466965E-1,1.216523838E1
2.014118878E2,-1.996839046E0,-3.780594170E-1,1.055798054E1
2.015118878E2,-1.130512118E0,-1.662548661E0,1.551554966E1
2.016118878E2,-1.053523540E0,-5.102642179E-1,1.066325092E1
2.017118878E2,-1.700032830E0,-2.512415409E0,1.135786819E1
2.018118878E2,-3.404255584E-2,-8.414870501E-1,1.028504181E1
2.019118878E2,2.455553114E-1,-2.964321077E-1,1.053291607E1
2.020118878E2,-6.403741241E-1,5.746832490E-1,7.477016926E0
2.021118878E2,-4.664952457E-1,-1.414599061E0,1.091007805E1
2.022118878E2,-1.436521053E0,4.047697186E-1,8.479514122E0
2.023118878E2,-1.381529212E0,7.777414322E-1,9.586757660E0
2.024118878E2,-1.864783883E0,4.487631917E-1,8.555081367E0
2.025118878E2,-6.008698344E-1,2.303521395E0,9.946860313E0
2.026118878E2,3.489548862E-1,7.464671731E-1,7.149385452E0
2.027118878E2,-1.605013013E0,1.092429399E0,8.098312378E0
2.028118878E2,-7.279869318E-1,2.788197517E0,5.918092728E0
2.029118878E2,-1.388113260E0,1.376067400E0,8.957232475E0
2.030118878E2,-2.491466105E-1,5.141547918E-1,9.504681587E0
2.031118878E2,-2.172139406E0,1.726743102E0,9.307234764E0
2.032118878E2,-1.975964546E0,6.197241545E-1,9.860744476E0
2.033118878E2,-1.854758143E0,-8.853309155E-1,1.009515190E1
2.034118878E2,-6.170306802E-1,-1.956362009E0,1.304742622E1
2.035118878E2,3.790320456E-1,9.070283771E-1,7.494375229E0
2.036118878E2,1.125274822E-1,1.435024589E-1,1.142034245E1
2.037118878E2,-1.383324862E0,-6.733692251E-3,9.848175049E0
2.038118878E2,-1.286958218E0,4.457704425E-1,1.131110668E1
2.039118878E2,-1.745821953E0,1.453654528E0,8.081178665E0
2.040118878E2,4.346224368E-1,1.417068094E-1,8.640075684E0
2.041118878E2,-5.036053658E-1,-4.489128292E-2,1.003103161E1
2.042118878E2,5.031564236E-1,3.586813509E-1,9.850419044E0
2.043118878E2,-1.481561899E0,-6.128408313E-1,1.124189949E1
2.044118878E2,-9.194482565E-1,-2.462286800E-1,9.380781174E0
2.045118878E2,-1.213860273E0,1.515305161E0,9.203610420E0
2.046118878E2,-1.261893988E0,1.011176109E0,9.399336815E0
2.047118878E2,-6.029647589E-1,1.331026554E0,8.875230789E0
2.048118878E2,-5.856816173E-1,1.054571033E0,9.911171913E0
2.049118878E2,-1.536030024E-1,7.445219159E-1,8.342596054E0
2.050118878E2,-2.941875458E-1,-1.572691202E-1,1.109166336E1
2.051118878E2,-1.819443703E0,1.858274579E0,7.874604225E0
2.052118878E2,-1.797372103E0,-1.421557274E-3,9.695693970E0
2.053118878E2,-1.679308057E0,-8.551788926E-1,1.177924824E1
2.054118878E2,-1.581370234E0,1.539172411E0,1.103914070E1
2.055118878E2,-1.398962021E0,6.682067513E-1,1.011370659E1
2.056118878E2,-6.393266916E-1,3.735702932E-1,9.128866196E0
2.057118878E2,-1.503109783E-1,9.804255962E-1,9.237652779E0
2.058118878E2,-8.078185916E-1,-4.489128187E-4,9.626187325E0
2.059118878E2,-7.511807680E-1,1.680131078E0,9.266308784E0
2.060118878E2,-5.491700023E-2,1.146972254E-1,1.039988804E1
2.061118878E2,4.556465149E-1,-1.678036094E0,1.188234806E1
2.062118878E2,-5.647323132E-1,-3.356745720E0,1.325011063E1
2.063118878E2,-1.587280869E0,1.898901165E-1,1.012754822E1
2.064118878E2,-2.437970638E0,2.307037830E0,8.641422272E0
2.065118878E2,-1.024044991E0,2.388066530E0,9.408164978E0
2.066118878E2,-8.623615503E-1,-6.159083843E-1,1.103345394E1
2.067118878E2,-2.771288455E-1,-7.436989248E-2,8.861089706E0
2.068118878E2,-2.157175779E0,-1.462258697E0,1.127758789E1
2.069118878E2,-1.835679293E0,-1.240570545E0,1.112727642E1
2.070118878E2,-6.105962396E-1,-6.400000453E-1,1.058169842E1
2.071118878E2,-4.673930705E-1,-1.372176886E0,1.166544819E1
2.072118878E2,7.609072328E-2,-4.406827390E-1,8.214132309E0
