"Time (s)","Gyroscope x (rad/s)","Gyroscope y (rad/s)","Gyroscope z (rad/s)"
3.233269700E-2,-4.333345965E-2,-1.040869020E-2,1.307331491E-2
1.126525640E-1,-1.240715943E-2,2.165007609E-4,-9.226263501E-3
2.126525640E-1,1.232389011E-3,8.926493116E-3,-2.612997591E-2
3.126525640E-1,1.765313908E-3,2.348200651E-3,-4.812978674E-3
4.126525640E-1,-3.214203520E-3,-2.115045907E-3,-3.813744290E-3
5.126525640E-1,-1.831929549E-4,-5.728943273E-3,3.430704353E-3
6.126525640E-1,6.761485245E-3,7.161179092E-3,1.182427281E-3
7.126525640E-1,-2.481431933E-3,8.976454847E-3,-3.080972470E-3
8.126525640E-1,6.928024348E-3,7.560872938E-3,-5.645673722E-3
9.126525640E-1,9.659265052E-4,2.498085669E-4,5.162710324E-3
1.012652564E0,2.381508471E-3,6.028713658E-3,2.731240354E-3
1.112652564E0,2.548047341E-3,2.814509906E-3,2.048430266E-3
1.212652564E0,2.115045907E-3,5.579058081E-3,2.381508471E-3
1.312652564E0,4.130168352E-3,7.327718195E-3,-5.196018144E-3
1.412652564E0,-2.997702977E-4,-1.015888178E-3,1.798621728E-3
1.512652564E0,1.182427281E-3,-1.348966267E-3,8.293644525E-3
1.612652564E0,3.797090380E-3,1.565467101E-3,9.093032219E-3
1.712652564E0,5.662327749E-4,3.397396533E-3,-7.244448643E-3
1.812652564E0,-3.364088712E-3,-1.315658446E-3,-7.211140823E-3
1.912652564E0,-8.143759333E-3,-2.386504598E-2,3.523966298E-2
2.012652564E0,-9.659265168E-3,-7.277756464E-3,2.218300104E-2
2.112652564E0,-2.214969369E-3,-2.964395098E-3,-7.827335503E-4
2.212652564E0,1.220731251E-2,6.828100886E-4,4.529862199E-3
2.312652564E0,-8.493491332E-4,-3.380742623E-3,1.557140145E-2
2.412652564E0,5.845520645E-3,1.415581908E-3,-6.661561929E-5
2.512652564E0,-5.362557247E-3,-2.165007609E-4,-8.959800936E-3
2.612652564E0,-5.395865068E-3,-1.049195975E-2,1.285681408E-2
2.712652564E0,-3.247511340E-3,-7.993874140E-3,8.793261833E-3
2.812652564E0,2.448124113E-3,2.814509906E-3,-1.120807789E-2
2.912652564E0,-3.464012174E-3,3.047664650E-3,-2.414816292E-3
3.012652564E0,8.660030435E-4,1.315658446E-3,8.493491448E-3
3.112652564E0,3.047664650E-3,5.762251094E-3,-1.299004536E-3
3.212652564E0,3.913667519E-3,6.661561783E-3,-7.127871271E-3
3.312652564E0,3.530627815E-3,1.365620177E-3,6.794793066E-3
3.412652564E0,2.031776356E-3,1.197415777E-2,-6.561638322E-3
3.512652564E0,-3.380742623E-3,7.460949477E-3,-6.062021479E-3
3.612652564E0,-3.047664650E-3,-1.280685235E-2,3.036006913E-2
3.712652564E0,-4.163476173E-3,-8.293644525E-3,3.215869144E-2
3.812652564E0,2.414816292E-3,1.685375161E-2,-2.251607925E-2
4.129468844E0,5.972090364E-2,-1.115811639E-3,4.962863866E-3
4.229468844E0,2.454785630E-2,4.546516109E-3,-1.189088821E-2
4.329468844E0,6.628253963E-3,-1.114146225E-2,7.427641656E-3
4.429468844E0,-5.112748593E-3,3.164242022E-3,9.026416577E-3
4.529468844E0,-8.043835871E-3,-3.963629249E-3,-1.100823097E-2
4.629468844E0,-1.802119017E-1,1.653732732E-2,-1.325650793E-2
4.729468844E0,5.147721991E-2,4.996171629E-5,-1.505513024E-2
4.829468844E0,6.082006171E-2,9.692572989E-3,-4.829632584E-3
4.929468844E0,4.862940311E-2,7.194486912E-3,9.492726065E-3
5.029468844E0,2.140026726E-2,-7.061255630E-3,3.330780892E-3
5.129468844E0,9.642611258E-3,-1.249042805E-3,-1.403924171E-2
5.229468844E0,6.661561783E-4,-5.828866852E-4,3.597243456E-3
5.329468844E0,8.160413126E-4,8.993108640E-4,2.681278624E-3
5.429468844E0,2.964395098E-3,1.448889729E-3,-1.217400469E-2
5.529468844E0,-1.332312386E-4,3.663859097E-4,3.330780892E-3
5.629468844E0,-3.347434802E-3,-6.495022681E-4,-2.003464662E-2
5.729468844E0,-1.142457873E-2,5.162710324E-3,-1.038704067E-1
5.829468844E0,-4.025248811E-2,4.494389296E-1,-1.092496142E-2
5.929468844E0,-5.012825504E-2,1.378943305E-2,-3.047331572E-1
6.029468844E0,-5.072779581E-2,-2.673951089E-1,-1.864737719E-1
6.129468844E0,1.073843762E-1,1.800953299E-1,-6.100658178E-1
6.229468844E0,1.756653935E-1,2.281584889E-1,-7.904775739E-1
6.329468844E0,7.124540210E-2,3.091630936E-1,-8.038173914E-1
6.429468844E0,1.070179939E-1,4.686741829E-1,-1.293708682E0
6.529468844E0,1.636246145E-1,6.805451512E-1,-1.751474500E0
6.629468844E0,1.847584248E-1,9.697901607E-1,-2.348700285E0
6.729468844E0,2.484762669E-1,8.456353545E-1,-2.866753101E0
6.829468844E0,5.793893337E-2,8.735972047E-1,-3.310762882E0
6.929468844E0,9.119678289E-2,4.907905757E-1,-1.319538832E0
7.029468844E0,-1.928522252E-2,-2.706259489E-2,-9.264567494E-2
7.129468844E0,1.868235022E-1,2.126703709E-1,-2.609167397E-1
7.229468844E0,6.477536559E-1,-2.861307263E-1,2.297406197E-1
7.329468844E0,9.508380294E-1,-1.325351000E0,8.025017381E-1
7.429468844E0,1.255005002E0,-6.419414282E-1,-1.850398660E0
7.529468844E0,-5.094596148E-1,4.651269019E-1,-1.445225835E0
7.629468844E0,3.594578803E-1,3.501150310E-1,-1.641092420E0
7.729468844E0,2.581521869E-1,2.188989222E-1,-1.281634569E0
7.829468844E0,2.349699438E-1,3.873198628E-1,-8.629887104E-1
7.929468844E0,4.549680352E-1,1.176265329E-1,-9.746697545E-1
8.029468844E0,5.098260045E-1,1.278353781E-1,-6.411086917E-1
8.129468844E0,5.435168147E-1,8.331948519E-2,-4.639111757E-1
8.229468844E0,6.062188148E-1,1.297339145E-2,-7.197318077E-1
8.329468844E0,5.022650957E-1,1.912367940E-1,-7.266931534E-1
8.429468844E0,4.466077685E-1,9.459418058E-2,-4.840124249E-1
8.529468844E0,1.459714770E-1,9.874100238E-2,-1.379842639E0
8.629468844E0,5.434835553E-1,5.480133891E-1,-1.587899804E0
8.729468844E0,6.363124251E-1,2.184492648E-1,-1.254904985E0
8.829468844E0,4.929722250E-1,3.633216023E-1,-9.616131186E-1
8.929468844E0,1.192419603E-2,9.655933827E-2,-5.475471020E-1
9.029468844E0,6.287015676E-1,2.150352150E-1,-4.203778803E-1
9.129468844E0,3.933485746E-1,-7.682446390E-2,-2.467609048E-1
9.229468844E0,4.674584568E-1,-2.496087253E-1,-5.695635453E-3
9.329468844E0,5.266131163E-1,-2.706592679E-1,-1.265030652E-1
9.429468844E0,6.457052231E-1,-5.445826650E-1,3.663192987E-1
9.529468844E0,7.766215205E-1,-1.025347590E0,1.931386709E0
9.629468844E0,-5.201846957E-1,-4.278721213E-1,8.922495842E-1
9.729468844E0,-2.776372433E-1,-2.782034874E-1,-2.055424899E-1
9.829468844E0,4.361990690E-1,9.980685264E-2,-7.706927657E-1
9.929468844E0,3.315625787E-1,-1.456983566E0,-3.054492772E-1
1.002946884E1,1.875562817E-1,-2.743064761E-1,-5.070614219E-1
1.012946884E1,-2.072578520E-1,1.174766421E-1,-4.308365285E-2
1.022946884E1,-3.976619542E-1,-5.443661809E-1,1.009826183E0
1.032946884E1,6.564136744E-1,1.973987371E-1,1.043516994E0
1.042946884E1,4.381475747E-1,1.865903437E-1,-6.653401256E-1
1.052946884E1,-5.721781850E-1,3.315792605E-2,9.756357074E-1
1.062946884E1,-5.233989358E-1,-7.344372272E-1,3.072479010E0
1.072946884E1,1.267195642E-1,-1.410918832E0,4.033292770E0
1.082946884E1,4.863273203E-1,-4.410620034E-1,1.845902205E0
1.092946884E1,6.748995185E-1,8.965129852E-1,-1.433967829E0
1.102946884E1,4.504548311E-1,1.137295127E0,-2.339390755E0
1.112946884E1,3.680846095E-1,6.902543902E-1,-2.221547604E0
1.122946884E1,-4.056891054E-2,4.073545039E-1,-2.431619883E0
1.132946884E1,1.446558237E-1,2.031276822E-1,-1.099357605E0
1.142946884E1,1.513673365E-1,-5.404525399E-1,9.471908212E-1
1.152946884E1,3.135264218E-1,-1.085734725E0,1.917180896E0
1.162946884E1,-5.988577604E-1,-8.539955616E-1,1.968757987E0
1.172946884E1,-3.037672304E-2,-3.725978136E-1,1.951004982E0
1.182946884E1,2.653300166E-1,-2.683110535E-1,1.684808969E0
1.192946884E1,2.759552002E-1,-2.522733510E-1,1.459065199E0
1.202946884E1,-8.260336518E-2,2.959565520E-1,4.727044404E-1
1.212946884E1,-3.722314239E-1,6.243882179E-1,-5.848018527E-1
1.222946884E1,1.114479303E-1,4.714887142E-1,-8.816410899E-1
1.232946884E1,-9.709226340E-2,3.769278228E-1,-6.107153296E-1
1.242946884E1,7.044601440E-2,1.582120955E-1,-5.858677030E-1
1.252946884E1,-2.974387407E-1,1.324151903E-1,-5.882325768E-1
1.262946884E1,1.971655786E-1,1.049862131E-1,-2.752890587E-1
1.272946884E1,1.840256453E-1,6.475038081E-2,3.402892351E-1
1.282946884E1,-4.618460834E-1,-1.101489291E-1,4.143657982E-1
1.292946884E1,3.740133941E-1,-2.630817294E-1,6.644907873E-3
1.302946884E1,7.914268374E-1,1.092496142E-1,-7.639812231E-1
1.312946884E1,1.541984975E-1,-1.328815073E-1,-1.098608136E0
1.322946884E1,4.850782752E-1,7.607503980E-2,3.162576631E-2
1.332946884E1,1.888552867E-2,2.849316597E-1,-1.712854058E-1
1.342946884E1,1.167438701E-1,1.446558237E-1,-5.760252476E-1
1.352946884E1,-5.852182209E-2,2.843654156E-1,-1.019019127E0
1.362946884E1,-6.846753359E-1,-6.994640082E-2,-8.585087657E-1
1.372946884E1,-4.547681808E-1,-3.982115090E-1,-1.773974001E-1
1.382946884E1,7.182329297E-1,-6.758154929E-2,2.238284796E-1
1.392946884E1,3.217701018E-1,-9.939050674E-2,-4.429272413E-1
1.402946884E1,1.514672637E-1,-2.548880279E-1,-2.987710536E-1
1.412946884E1,-4.160478413E-1,-6.316826344E-1,4.460082352E-1
1.422946884E1,-6.290180087E-1,-5.066117644E-1,1.158812046E0
1.432946884E1,-1.452220511E-2,-2.883456945E-1,1.006245613E0
1.442946884E1,2.447457910E-1,1.435566545E-1,2.513407171E-1
1.452946884E1,7.006630898E-1,2.621990740E-1,-2.029111832E-1
1.462946884E1,-7.572530210E-2,3.094128966E-1,-3.304967284E-1
1.472946884E1,-2.201146632E-1,2.633815110E-1,-4.209107757E-1
1.482946884E1,-1.488692611E-1,-2.631316893E-2,-5.220332742E-1
1.492946884E1,1.369284093E-1,-2.369017899E-1,-2.600174248E-1
1.502946884E1,-1.187090352E-1,1.200913042E-1,-4.442928731E-1
1.512946884E1,1.840756088E-1,-2.634980679E-1,4.443261772E-2
1.522946884E1,3.837226331E-1,-8.694837093E-1,1.138927221E0
1.532946884E1,-9.069716930E-2,-6.370784640E-1,1.448922992E0
1.542946884E1,-6.120143533E-1,-2.969391271E-2,1.693319082E0
1.552946884E1,-5.698966235E-2,1.272857934E-1,1.001499176E0
1.562946884E1,3.431870043E-1,1.783966273E-1,-2.013956755E-1
1.572946884E1,6.519004703E-1,1.017387062E-1,-5.754756927E-1
1.582946884E1,-8.993108571E-2,1.550145447E-1,-7.965396047E-1
1.592946884E1,-6.286183000E-1,4.545017183E-1,-6.142293215E-1
1.602946884E1,-1.745662242E-1,-7.897281647E-2,-2.253939509E-1
1.612946884E1,-2.438964397E-1,-3.974287808E-1,1.231389716E-1
1.622946884E1,-4.303202331E-1,-3.639877439E-1,3.271826208E-1
1.632946884E1,-2.563036084E-1,-3.870367408E-1,8.739969134E-1
1.642946884E1,6.274025440E-1,-3.831397295E-1,1.226743340E0
1.652946884E1,-5.389536619E-1,-2.463945150E-1,7.605504990E-1
1.662946884E1,-3.704327941E-1,2.168838084E-1,-1.873897314E-1
1.672946884E1,-3.281485438E-1,2.873298228E-1,-1.151134610E0
1.682946884E1,1.143956706E-1,3.418880105E-1,-9.901245832E-1
1.692946884E1,-2.982214689E-1,-3.330281377E-1,-4.327517152E-1
1.702946884E1,-6.169605851E-1,-1.668221653E-1,-2.848650515E-1
1.712946884E1,1.314326227E-1,7.561538815E-1,-2.065583766E-1
1.722946884E1,3.595078290E-1,1.298504919E-1,-4.578824639E-1
1.732946884E1,8.443529718E-3,-1.137961298E-1,-4.005264044E-1
1.742946884E1,-6.223397851E-1,-1.515172273E-1,-4.350000024E-1
1.752946884E1,-3.393899202E-1,-3.371916115E-1,-2.821171582E-1
1.762946884E1,-3.640543520E-1,-6.558308005E-2,1.031526208E0
1.772946884E1,-1.259851217E0,-1.313493401E-1,4.726211727E-1
1.782946884E1,3.622557521E-1,3.095294833E-1,-5.748927966E-2
1.792946884E1,1.004130483E0,-5.482465401E-2,-7.006464005E-1
1.802946884E1,9.098027945E-1,-5.172702670E-1,-1.612431109E-1
1.812946884E1,5.250143409E-1,-2.237618715E-1,4.801986814E-1
1.822946884E1,-9.677750468E-1,6.592781544E-1,-8.035009503E-1
1.832946884E1,8.657699227E-1,4.197283685E-1,-8.261002898E-1
1.842946884E1,1.018003225E0,1.602105610E-2,-4.060055315E-1
1.852946884E1,-7.686443329E-1,-3.351431787E-1,-2.763881981E-1
1.862946884E1,-8.838227391E-2,-3.717151582E-1,9.564170837E-1
1.872946884E1,7.155350447E-1,-1.215451956E0,6.404924989E-1
1.882946884E1,4.270061105E-2,-4.803485870E-1,6.343972087E-1
1.892946884E1,2.073910832E-1,3.561437428E-1,2.662626207E-1
1.902946884E1,-7.044601440E-2,1.236635685E0,-5.495788530E-2
1.912946884E1,-1.337475032E-1,1.592279822E-1,-1.652483702E0
1.922946884E1,-1.275689155E-2,-2.668288648E-1,-6.381443143E-1
1.932946884E1,-5.700631738E-1,1.617260724E-1,4.468242526E-1
1.942946884E1,-4.834628701E-1,-6.322655082E-1,4.916898906E-1
1.952946884E1,-5.455652475E-1,-1.275439262E0,1.399361014E0
1.962946884E1,-7.353531718E-1,-3.440363705E-1,6.047365665E-1
1.972946884E1,-7.777706385E-1,-1.571962088E-1,4.512542188E-1
1.982946884E1,-1.254105687E0,-6.170271710E-2,-6.575128436E-1
1.992946884E1,-2.241815329E0,1.311545014E0,-1.239183784E0
2.002946884E1,7.597178221E-1,2.317224294E-1,-1.110415816E0
2.012946884E1,-1.833828092E0,-9.173803329E-1,-8.875365257E-1
2.022946884E1,3.487660885E-1,-6.170271635E-1,6.490359902E-1
2.032946884E1,1.045765281E0,-9.383309484E-1,1.035956144E0
2.042946884E1,-9.902411699E-2,5.709791183E-1,1.422210217E0
2.052946884E1,4.687407911E-1,2.294408530E-1,9.710891843E-1
2.062946884E1,1.437781572E0,7.900945544E-1,-8.575761914E-1
2.072946884E1,1.337974668E0,3.572928607E-1,-5.616695881E-1
2.082946884E1,-2.763382494E-1,1.846418381E-1,2.099557817E-1
2.092946884E1,-1.799271226E0,-7.722082734E-1,1.497185975E-1
2.102946884E1,1.047347426E0,-2.148353681E-2,9.925560951E-1
2.112946884E1,1.153599381E0,1.003564298E-1,6.447892189E-1
2.122946884E1,9.562505484E-1,2.252440602E-1,1.401925683E-1
2.132946884E1,1.202145457E0,-2.541385964E-2,-2.580189407E-1
2.142946884E1,-1.030027390E0,-9.011428058E-2,-4.450922608E-1
2.152946884E1,-1.284382463E0,1.121807024E-1,1.786964014E-2
2.162946884E1,1.098225117E0,6.144458055E-1,6.881393492E-2
2.172946884E1,2.747394741E-1,-4.608635008E-1,-3.300803900E-2
2.182946884E1,6.262867451E-1,1.850415319E-1,1.853079945E-1
2.192946884E1,-4.059389234E-1,-1.260201037E-1,3.586751521E-1
2.202946884E1,-1.154715180E0,-1.577957422E-1,2.191820443E-1
2.212946884E1,-5.225329399E-1,-3.730141521E-1,-4.659762606E-2
2.222946884E1,2.547547817E-1,-1.383772939E-1,8.491826057E-2
2.232946884E1,-1.009826183E0,-5.499785542E-1,1.526996493E-1
2.242946884E1,-1.144939303E0,-5.290612578E-1,1.885555089E-1
2.252946884E1,1.871898890E0,5.076276660E-1,1.531642914E0
2.262946884E1,3.092163801E0,4.497053921E-1,6.043202281E-1
2.272946884E1,-1.207574606E-1,2.123872489E-1,6.033376455E-1
2.282946884E1,1.114812374E0,-3.080139756E-1,1.907371730E-1
2.292946884E1,-1.078906536E0,-7.399329543E-2,-6.446226835E-1
2.302946884E1,-7.196984887E-1,-1.293841898E-1,-6.687875390E-1
2.312946884E1,-8.876531571E-2,-2.807681859E-1,-3.793759644E-2
2.322946884E1,-8.074978590E-1,-1.440396160E-1,3.427540064E-1
2.332946884E1,1.017903328E0,1.837258786E-1,-1.987810135E-1
2.342946884E1,-3.844387293E0,-3.900011480E-1,-4.963529706E-1
2.352946884E1,-4.928556681E-1,8.866705298E-1,7.326053083E-2
2.362946884E1,-3.978051662E0,3.027180135E-1,-8.719984442E-2
2.372946884E1,-8.509978652E-1,4.614796937E-1,-1.786964014E-2
2.382946884E1,1.297705531E0,4.113847613E-1,-4.106353223E-1
2.392946884E1,-2.721747756E-1,2.557540238E-1,-2.439797074E-1
2.402946884E1,6.330981851E-1,6.644908339E-2,4.436600208E-2
2.412946884E1,-4.849117398E-1,-6.636580825E-2,-1.192752644E-1
2.422946884E1,-1.879726291E0,-2.598009072E-3,-5.034142137E-1
2.432946884E1,-5.129402503E-2,2.310562730E-1,9.854115546E-2
2.442946884E1,2.357693315E-1,-3.150918707E-2,1.974653453E-1
2.452946884E1,-6.453221440E-1,1.795124412E-1,2.109383643E-1
2.462946884E1,-3.650536016E-2,1.742164940E-1,-1.522166934E-2
2.472946884E1,4.612132311E-1,3.811079562E-1,-2.107551694E-1
2.482946884E1,2.973054945E-1,8.058824390E-2,-3.582588136E-1
2.492946884E1,-1.365620177E-3,-2.144023776E-1,-5.072279572E-1
2.502946884E1,4.268395901E-2,-1.350298673E-1,-2.108217776E-1
2.512946884E1,4.931554198E-1,-1.285015345E-1,3.736969829E-1
2.522946884E1,1.273857206E-1,-9.934054315E-2,2.280086130E-1
2.532946884E1,3.696001172E-1,-1.739833504E-1,-3.144590259E-1
2.542946884E1,4.313527942E-1,6.211906672E-3,1.491523683E-1
2.552946884E1,-8.886523843E-1,1.982813925E-1,1.121807024E-1
2.562946884E1,-4.827966988E-1,2.189988457E-2,-2.133365162E-2
2.572946884E1,6.440064907E-1,2.672119141E-1,-6.366787851E-2
2.582946884E1,5.760585666E-1,1.727176458E-1,-2.253273278E-1
2.592946884E1,-4.811146557E-1,-4.408288747E-2,-7.850650698E-2
2.602946884E1,-5.166041255E-1,-6.401760876E-2,-2.691937089E-1
2.612946884E1,9.641778469E-1,1.098991185E-1,-2.624821961E-1
2.622946884E1,-2.166672945E-1,-5.514108017E-2,-3.693003356E-1
2.632946884E1,2.157513350E-1,-2.781535089E-1,-3.255172372E-1
2.642946884E1,-6.665558815E-1,-6.443395466E-2,9.605972469E-2
2.652946884E1,2.852480710E-1,-8.215371519E-2,-1.531826109E-1
2.662946884E1,7.776707411E-1,1.504846811E-1,7.252775878E-2
2.672946884E1,-7.131201774E-2,1.739666909E-1,-2.293242700E-2
2.682946884E1,-2.835993469E-1,2.051094919E-1,-5.570731312E-2
2.692946884E1,4.934718609E-1,7.294410467E-2,-7.935585827E-2
2.702946884E1,-1.551477760E-1,-9.159647860E-3,-2.584685944E-2
2.712946884E1,5.841856599E-1,-1.708024442E-1,2.576358989E-2
2.722946884E1,-1.373480797E0,7.126206160E-2,-4.311696067E-2
2.732946884E1,-6.842756271E-1,-2.120375186E-1,-3.742299080E-1
2.742946884E1,1.979150027E-1,2.169504166E-1,2.404490709E-1
2.752946884E1,-1.337641627E-1,2.689105868E-1,7.972224057E-2
2.762946884E1,8.748295903E-2,2.782867476E-2,5.457484722E-2
2.772946884E1,-2.013457008E-2,-1.763148904E-1,-2.296406925E-1
2.782946884E1,-4.573162198E-1,5.310930312E-2,9.472741187E-2
2.792946884E1,2.919262946E-1,1.747494191E-1,8.896516263E-2
2.802946884E1,7.474105954E-1,4.116845131E-2,2.706259489E-2
2.812946884E1,1.612930745E-1,-6.924693286E-2,-8.218701929E-2
2.822946884E1,-6.727011800E-1,-3.049330041E-2,-5.220999196E-2
2.832946884E1,1.374446750E-1,-2.947741188E-3,1.908204406E-1
2.842946884E1,-3.079140484E-1,1.620591432E-1,1.206242293E-1
2.852946884E1,2.770210505E-1,4.518204555E-2,4.339008331E-1
2.862946884E1,4.104021788E-1,9.202947468E-2,3.758786321E-1
2.872946884E1,-5.345237255E-1,-4.718051106E-2,3.702162951E-2
2.882946884E1,-1.358508945E0,2.747228146E-1,-1.169437170E-1
2.892946884E1,6.195252761E-3,3.071479797E-1,2.255771458E-1
2.902946884E1,3.647704720E-1,1.290677637E-1,2.330380976E-1
2.912946884E1,-6.353464723E-2,8.686676621E-2,1.749825776E-1
2.922946884E1,-5.105920434E-1,-1.362788975E-1,-5.774408579E-1
2.932946884E1,3.163742423E-1,-1.422093630E0,-5.079274178E-1
2.942946884E1,5.620193481E-1,-5.143058896E-1,-5.582721829E-1
2.952946884E1,-5.052627921E-1,-6.029379964E-1,3.491824269E-1
2.962946884E1,5.699465871E-1,-5.091098547E-1,8.172070980E-2
2.972946884E1,-3.409220874E-1,-6.661561877E-2,2.892450094E-1
2.982946884E1,1.770959616E0,-2.086234689E-1,1.207741141E0
2.992946884E1,-1.108800292E0,-4.659429491E-1,6.069015861E-1
3.002946884E1,-7.395999134E-2,3.298639059E-1,2.345535904E-1
3.012946884E1,-1.483862847E-1,5.530928373E-1,9.414452314E-2
3.022946884E1,9.140995145E-1,4.569998085E-1,4.666424170E-2
3.032946884E1,-4.331014454E-1,6.701198220E-1,-4.166640341E-1
3.042946884E1,-5.903143287E-1,2.903941274E-1,-6.233556867E-1
3.052946884E1,-2.043101043E-1,-5.171037465E-2,-3.910170197E-1
3.062946884E1,-9.664760828E-1,-6.763150543E-2,-1.339973211E-1
3.072946884E1,-7.326219082E-1,-4.620459378E-1,2.530227900E-1
3.082946884E1,5.033476353E-1,-7.057092190E-1,8.922163248E-1
3.092946884E1,1.424741596E-1,-1.444393098E-1,5.149220824E-1
3.102946884E1,-7.928091288E-1,2.145522535E-1,2.698099017E-1
3.112946884E1,-1.324485093E-1,3.396230936E-1,-1.645405777E-2
3.122946884E1,6.707193851E-1,2.107385099E-1,-8.613232970E-1
3.132946884E1,8.163744211E-2,-2.008460909E-1,-1.036122680E0
3.142946884E1,-7.711091042E-1,1.655731201E-1,-1.732006073E-1
3.152946884E1,-8.021020293E-1,-9.520871043E-1,3.297639787E-1
3.162946884E1,3.224195912E-2,-5.855679512E-1,7.916266918E-1
3.172946884E1,3.492656946E-1,-4.154816270E-1,4.989010394E-1
3.182946884E1,-6.796458364E-2,2.698432207E-1,8.406224847E-1
3.192946884E1,-2.905107141E-1,3.469674587E-1,-6.496687979E-2
3.202946884E1,6.513342261E-2,4.161311090E-1,-4.837293327E-1
3.212946884E1,1.192253083E-1,2.288413048E-1,-7.571531534E-1
3.222946884E1,2.526230812E-1,1.084502265E-1,-5.202846527E-1
3.232946884E1,1.529494673E-1,1.728508770E-1,-3.700497746E-2
3.242946884E1,-2.157180309E-1,7.505914569E-2,-3.757620454E-1
3.252946884E1,6.019387245E-1,-1.008060873E-1,-5.064119101E-1
3.262946884E1,-4.822804332E-1,-2.508077919E-1,-3.726144731E-1
3.272946884E1,1.598108709E-1,-3.672519028E-1,2.279253453E-1
3.282946884E1,1.011658072E0,-2.340539843E-1,3.985945582E-1
3.292946884E1,9.131336212E-1,1.943510771E-2,3.537122905E-1
3.302946884E1,1.811445206E-1,3.047498167E-1,2.292243391E-1
3.312946884E1,-1.432085872E0,7.107719779E-1,-1.472371668E-1
3.322946884E1,2.975553274E-1,4.660761952E-1,2.121707425E-2
3.332946884E1,6.127138138E-1,-3.476835787E-1,-2.560870945E-1
3.342946884E1,2.113580465E0,4.233422503E-2,-9.436102211E-2
3.352946884E1,6.182595491E-1,1.195916906E-1,-1.037871316E-1
3.362946884E1,-2.477934510E-1,2.926424146E-1,-1.164940670E-1
3.372946884E1,3.620059192E-1,-3.415715694E-2,3.672185913E-2
3.382946884E1,3.282484785E-2,-3.089299425E-2,1.365786791E-1
3.392946884E1,2.033441700E-2,-8.818242699E-2,2.122207135E-1
3.402946884E1,-8.434869647E-1,2.598009072E-2,6.783135235E-2
3.412946884E1,-1.416248083E-1,3.274157643E-2,-7.955570519E-2
3.422946884E1,-1.348133534E-1,4.831297696E-2,-2.369850688E-2
3.432946884E1,-5.062786862E-3,-2.514739521E-3,-2.364854515E-2
3.442946884E1,2.247777581E-1,-2.306565829E-2,-2.387836874E-1
3.452946884E1,-1.163608357E-1,-6.811446976E-3,-3.314127028E-1
3.462946884E1,-1.415581908E-2,-1.870899647E-1,-3.066816628E-1
3.472946884E1,7.066085339E-1,-6.878062617E-3,1.381774545E-1
3.482946884E1,3.577924967E-1,-2.917098105E-1,3.181728423E-1
3.492946884E1,8.265332878E-2,-1.349632442E-1,3.887687624E-1
3.502946884E1,7.311064284E-3,-2.004130930E-1,2.453120202E-1
3.512946884E1,-1.161976218E0,3.481165767E-1,2.792859972E-1
3.522946884E1,3.635547310E-2,1.577790976E-1,-2.726077735E-1
3.532946884E1,9.180797935E-1,4.548847675E-1,-2.769877315E-1
3.542946884E1,-1.036872119E-1,-9.049732238E-2,-2.931919992E-1
3.552946884E1,-1.633331656E0,3.161743879E-1,7.755723596E-2
3.562946884E1,-1.256287336E0,-1.854911894E-1,-1.293675303E-1
3.572946884E1,6.633916497E-1,-4.462413788E-1,4.531027973E-1
3.582946884E1,9.343340397E-1,1.268694401E-1,1.818606406E-1
3.592946884E1,-5.826035738E-1,1.242148161E0,-1.089165360E-2
3.602946884E1,-6.509178877E-1,-9.219601750E-2,-8.239352703E-1
3.612946884E1,4.447758496E-1,-6.550647020E-1,1.653399616E-1
3.622946884E1,1.295507252E-1,-5.921462178E-1,-3.833729029E-2
3.632946884E1,3.647205234E-1,-2.431470156E-2,5.235987902E-1
3.642946884E1,-7.360526323E-1,-6.186925620E-2,9.954538345E-1
3.652946884E1,-8.063820750E-2,1.959165335E-1,9.143826365E-1
3.662946884E1,5.172702670E-2,5.565235615E-1,5.900977850E-1
3.672946884E1,-4.751858711E-1,2.209473550E-1,-6.190589666E-1
3.682946884E1,-1.915865242E-1,-1.722346842E-1,-6.970158815E-1
3.692946884E1,7.483931780E-1,-1.517170761E-2,-4.005597234E-1
3.702946884E1,1.093661934E-1,-1.549645811E-1,-7.351533175E-1
3.712946884E1,-2.829498351E-1,-4.487394691E-1,-4.610134065E-1
3.722946884E1,4.643441737E-1,-3.653033972E-1,-1.242714375E-1
3.732946884E1,1.937931657E0,1.535490062E-2,6.561805010E-1
3.742946884E1,-7.604006529E-1,-4.073711634E-1,5.350400209E-1
3.752946884E1,-2.411485463E-2,-7.092898339E-2,6.365788579E-1
3.762946884E1,-4.193453118E-2,1.686374396E-1,3.359758854E-1
3.772946884E1,1.099340916E0,1.588782482E-2,-2.303734720E-1
3.782946884E1,3.430537879E-1,7.246114314E-2,-1.632915437E-1
3.792946884E1,-7.849484682E-1,-5.111083388E-2,-2.077741176E-1
3.802946884E1,1.776522040E0,-5.099425837E-2,4.293210208E-1
3.812946884E1,-5.077442527E-1,-6.841424108E-1,3.116778433E-1
3.822946884E1,-2.574360669E-1,4.142991900E-1,4.552178383E-1
3.832946884E1,-9.077710509E-1,-2.425807714E-1,-9.890753776E-2
3.842946884E1,4.935717881E-1,-1.287180334E-1,-7.289414108E-2
3.852946884E1,2.656297758E-2,-1.639577001E-1,-1.804117560E-1
3.862946884E1,-5.982581973E-1,3.061820269E-1,-3.408388197E-1
3.872946884E1,2.810679376E-1,-2.632982433E-1,-7.410987467E-2
3.882946884E1,-5.267630145E-2,-5.204345286E-2,3.500484228E-1
3.892946884E1,-4.985179901E-1,-4.903742373E-1,-3.447358264E-3
3.902946884E1,-2.632149756E-1,1.069180667E-2,-4.454919696E-2
3.912946884E1,-1.037704796E-1,-3.133931756E-1,-8.608403057E-2
3.922946884E1,6.321822107E-2,3.511642516E-1,2.091730386E-1
3.932946884E1,-5.516439676E-1,-2.294908017E-1,-4.881259426E-2
3.942946884E1,3.662360311E-1,-1.063351855E-1,1.317490339E-1
3.952946884E1,-4.795158803E-1,-1.418080032E-1,3.501982987E-1
3.962946884E1,6.159279943E-1,-5.142725632E-2,4.513374865E-1
3.972946884E1,1.045382261E0,-1.368784457E-1,1.197415777E-2
3.982946884E1,8.026349545E-1,1.669553965E-1,-2.640476525E-1
3.992946884E1,-6.938849688E-1,1.138460934E-1,-2.608667612E-1
4.002946884E1,6.534159780E-1,8.025516570E-2,-4.042901993E-1
4.012946884E1,7.918931544E-2,-1.756986976E-2,3.888686746E-2
4.022946884E1,8.721650243E-1,1.265696716E-3,2.723246515E-1
4.032946884E1,-4.890419245E-1,5.695635453E-3,3.159245849E-1
4.042946884E1,3.218033910E-1,-4.869601876E-2,-2.598009072E-3
4.052946884E1,-2.214136720E-1,4.638112485E-1,2.267595679E-1
4.062946884E1,-8.392735124E-1,1.983146966E-1,4.598642886E-1
4.072946884E1,7.228127718E-1,-5.447492376E-2,4.656431675E-1
4.082946884E1,-1.059354916E-1,-2.180662304E-1,1.403924227E-1
4.092946884E1,1.520068526E0,5.649337769E-1,2.547881007E-1
4.102946884E1,1.264531016E-1,1.943843812E-1,1.584285945E-1
4.112946884E1,3.632882833E-1,1.342637837E-1,-7.214471698E-2
4.122946884E1,5.009993911E-1,6.679881364E-2,-3.422377408E-1
4.132946884E1,1.696866304E-1,4.710890055E-1,-1.222896203E-1
4.142946884E1,8.987779617E-1,-2.367019504E-1,-6.504349113E-1
4.152946884E1,-3.809247613E-1,1.918529905E-2,-4.145156965E-2
4.162946884E1,1.050977945E0,7.409322262E-2,1.213903129E-1
4.172946884E1,-2.535723448E-1,2.105553150E-1,1.273190975E-1
4.182946884E1,4.062719941E-1,3.153083920E-1,2.931420207E-1
4.192946884E1,6.648238748E-2,2.170003764E-2,1.446724683E-1
4.202946884E1,1.077507623E-2,1.162442565E-1,-1.251540929E-1
4.212946884E1,1.760983914E-1,5.584054440E-2,-2.947741188E-2
4.222946884E1,2.810679376E-1,-3.233188987E-1,-6.188591197E-2
4.232946884E1,-3.062819541E-1,2.549879253E-1,-2.799521387E-2
4.242946884E1,1.196249947E-1,8.431871980E-2,1.666056663E-1
4.252946884E1,-2.366353273E-1,-2.756221220E-2,2.565367520E-1
4.262946884E1,-4.893250167E-1,8.621726185E-2,1.221230850E-1
4.272946884E1,-2.470606714E-1,1.884555817E-1,2.245279402E-1
4.282946884E1,-1.559804678E-1,-4.318357632E-2,-7.252775878E-2
4.292946884E1,-1.179446220E0,-1.632082649E-2,1.079339609E-1
4.302946884E1,3.902176321E-1,2.071579248E-1,1.747494191E-1
4.312946884E1,7.150021195E-1,-7.329383492E-2,-2.828332782E-1
4.322946884E1,3.313960433E-1,-2.036106437E-1,-4.731207788E-1
4.332946884E1,-1.994971186E-1,-5.245980024E-1,-2.072411925E-1
4.342946884E1,-4.945710003E-1,-4.761184752E-1,1.047030985E-1
4.352946884E1,-1.281984329E0,5.447492376E-2,4.198282957E-1
4.362946884E1,-9.807484597E-2,-2.985212505E-1,4.043901265E-1
4.372946884E1,-2.048563480E0,-2.575193346E-1,-6.586619467E-2
4.382946884E1,6.835928559E-1,-3.546282351E-1,3.260834515E-1
4.392946884E1,-3.624389172E-1,4.753024504E-2,3.068315387E-1
4.402946884E1,1.992473155E-1,3.925325349E-2,1.928522140E-1
4.412946884E1,6.039205790E-1,-4.340007529E-2,-1.369783729E-1
4.422946884E1,3.845553100E-1,4.242748916E-1,-1.822603345E-1
4.432946884E1,3.745296597E-1,1.265696734E-1,-3.529795110E-1
4.442946884E1,-1.875229739E-2,6.371451020E-1,-3.752124682E-2
4.452946884E1,7.762385160E-2,3.572262526E-1,-3.295141757E-1
4.462946884E1,9.524368495E-2,-1.953836083E-1,-2.784366310E-1
4.472946884E1,1.684542447E-1,-1.969657391E-1,-1.918529905E-2
4.482946884E1,8.148755878E-2,-2.017620504E-1,3.765447810E-2
4.492946884E1,4.575493932E-1,-1.055524498E-1,1.224061996E-1
4.502946884E1,1.348366737E0,9.039739519E-2,4.210107028E-2
4.512946884E1,3.060821295E-1,5.987078696E-2,5.555742607E-2
4.522946884E1,-4.171303511E-1,-1.326150447E-1,-2.504747361E-2
4.532946884E1,-2.769877315E-1,-1.784132868E-1,-5.617029071E-1
4.542946884E1,-8.381410837E-1,-4.415116608E-1,-5.021985173E-1
4.552946884E1,-1.295490623E0,-3.405556977E-1,-2.102055848E-1
4.562946884E1,-3.738135397E-1,-1.259867847E-1,8.485164493E-2
4.572946884E1,-6.598110795E-1,-2.465444058E-1,4.575493932E-1
4.582946884E1,-9.805819392E-2,-1.646405011E-1,4.959033132E-1
4.592946884E1,6.731508672E-2,6.868070364E-2,2.938581407E-1
4.602946884E1,5.953770876E-1,1.671885550E-1,5.335910991E-2
4.612946884E1,1.623422652E-1,1.566466242E-1,-2.049429566E-1
4.622946884E1,2.356361002E-1,3.430704353E-3,-1.350964755E-1
4.632946884E1,3.239850700E-1,-1.782967001E-1,-3.337942064E-1
4.642946884E1,1.328981575E-2,2.217967063E-1,-2.482098043E-1
4.652946884E1,-1.454618692E0,5.264632106E-1,-1.036539003E-1
4.662946884E1,-6.165608764E-1,-1.907704771E-1,1.666389704E-1
4.672946884E1,5.308598876E-1,-3.270660341E-1,4.611632824E-1
4.682946884E1,1.173667312E0,-4.773675203E-1,2.935583889E-1
4.692946884E1,3.673684895E-1,-3.485828936E-1,4.581822157E-1
4.702946884E1,1.615761817E-1,-4.871100485E-1,-1.702195555E-1
4.712946884E1,-7.477603555E-1,2.242115140E-1,-5.741933584E-1
4.722946884E1,-3.207542002E-1,1.516671181E-1,-5.797390938E-1
4.732946884E1,6.200082302E-1,3.195551336E-1,-1.122473180E-2
4.742946884E1,5.081439614E-1,-3.742965162E-1,-2.450788617E-1
4.752946884E1,2.836159989E-2,3.913667798E-2,-6.651569903E-2
4.762946884E1,1.150285244E0,-3.644873500E-1,-3.837559223E-1
4.772946884E1,-1.185175180E0,-3.018520176E-1,-1.562968940E-1
4.782946884E1,6.360459328E-1,-3.534957767E-1,3.293476105E-1
4.792946884E1,1.901376247E-1,-2.301569656E-2,-1.102488488E-2
4.802946884E1,1.273690611E-1,-2.422976643E-1,-1.626753360E-1
4.812946884E1,-8.304969072E-1,2.229957841E-2,-4.583154619E-2
4.822946884E1,-5.095428824E-1,-4.556508362E-2,-2.057756484E-1
4.832946884E1,-2.042268366E-1,3.562270105E-2,-1.095660403E-1
4.842946884E1,-8.578426391E-2,-1.201579198E-1,1.819772124E-1
4.852946884E1,7.364523411E-1,-2.283416837E-1,2.978217900E-1
4.862946884E1,-2.068248391E-1,9.769180417E-2,2.658296227E-1
4.872946884E1,-1.381774545E-1,-5.439165235E-2,-5.867170691E-1
4.882946884E1,-2.507411838E-1,1.247377470E-1,-4.269395173E-1
4.892946884E1,-5.366554260E-1,3.915333152E-1,-1.308830380E-1
4.902946884E1,4.204777777E-1,-2.123372816E-2,-5.534925461E-1
4.912946884E1,-7.309731841E-1,5.988411307E-1,4.944544286E-2
4.922946884E1,8.514142036E-1,-1.875562817E-1,-3.518970013E-1
4.932946884E1,2.209140509E-1,-9.592649527E-3,-2.937748730E-1
4.942946884E1,-1.288545966E0,1.507344991E-1,-3.642708659E-1
4.952946884E1,-9.244582802E-2,-5.650670081E-2,-2.615329325E-1
4.962946884E1,-9.894084930E-2,-1.047863662E-1,2.231623279E-3
4.972946884E1,5.846019983E-1,-1.404257268E-1,-1.465543658E-1
4.982946884E1,4.666757286E-1,-2.401659638E-1,1.704693735E-1
4.992946884E1,-2.403158508E-2,-1.309663057E-1,-2.362522930E-1
5.002946884E1,-2.035606802E-1,1.515005678E-1,1.588615924E-1
5.012946884E1,4.105187580E-2,-1.111981198E-1,-2.496420406E-2
5.022946884E1,-6.869902015E-1,-6.583288312E-2,2.174666822E-1
5.032946884E1,-5.735438466E-1,-6.843089312E-2,-1.600939929E-1
5.042946884E1,5.046133325E-2,2.532059550E-1,1.771808863E-1
5.052946884E1,-4.046898801E-3,-3.357094228E-1,2.783866823E-1
5.062946884E1,-7.570531964E-1,4.786332324E-2,-5.778905004E-3
5.072946884E1,2.008460909E-1,1.554475427E-1,6.187758446E-1
5.082946884E1,-6.480867267E-1,5.808882117E-1,9.762518853E-2
5.092946884E1,1.037105322E0,-6.631585211E-2,-1.151117906E-1
5.102946884E1,-2.797356248E-1,4.691071808E-1,-4.202446342E-1
5.112946884E1,-4.880760014E-1,-2.279919572E-2,-2.969890833E-1
5.122946884E1,-6.028547287E-1,-1.078173816E-1,-1.853912622E-1
5.132946884E1,-1.162276044E-1,-3.105620146E-1,-3.145256341E-1
5.142946884E1,-4.885256588E-1,-1.741498858E-1,-1.352630109E-1
5.152946884E1,-7.225962877E-1,5.880493671E-2,-2.645639181E-1
5.162946884E1,-8.230359852E-2,4.785166383E-1,-1.329647750E-1
5.172946884E1,-3.139760792E-1,3.986445069E-1,1.724511832E-1
5.182946884E1,-1.032608747E0,3.454019874E-2,-1.082004160E-1
5.192946884E1,-6.643242389E-2,-3.195717931E-1,-3.195384741E-1
5.202946884E1,1.034490585E0,1.250824809E0,-2.895447910E-1
5.212946884E1,3.490325511E-1,5.096094683E-3,-4.491225183E-1
5.222946884E1,-1.485778093E0,-9.767515212E-2,-3.849050403E-1
5.232946884E1,-2.747561336E-1,-3.120941855E-2,1.197582260E-1
5.242946884E1,7.654300928E-1,-5.832697153E-1,1.957666576E-1
5.252946884E1,-8.476504683E-1,-2.523732781E-1,7.701931596E-1
5.262946884E1,-4.593646526E-1,-6.791462749E-2,6.350134015E-1
5.272946884E1,-5.055459142E-1,2.998535633E-1,7.588684559E-1
5.282946884E1,-1.236219332E-1,1.600440219E-2,2.136196345E-1
5.292946884E1,-6.672720313E-1,1.759818196E-1,-2.043267637E-1
5.302946884E1,-2.504247725E-1,1.663225442E-1,-3.021351397E-1
5.312946884E1,7.336378098E-1,-2.588516474E-1,-2.977385223E-1
5.322946884E1,4.919563606E-2,-4.612298906E-1,-8.247013390E-2
5.332946884E1,-1.098724723E0,1.998968124E-1,5.250642896E-1
5.342946884E1,-2.723912597E-1,7.532561421E-1,2.275089920E-1
5.352946884E1,-7.161179092E-4,-1.804950237E-1,-5.493956804E-1
5.362946884E1,-1.603604555E-1,1.718516499E-1,-2.078573853E-1
5.372946884E1,3.068481982E-1,1.955168396E-1,4.263066649E-1
5.382946884E1,-5.683977902E-2,-1.875063181E-1,4.408455193E-1
5.392946884E1,-3.753790259E-2,-3.237019479E-1,3.407388926E-1
5.402946884E1,-2.171169519E-1,-1.597942114E-1,-1.042534411E-2
5.412946884E1,-3.611899018E-1,2.177664638E-1,-3.757787049E-1
5.422946884E1,7.317725569E-2,-4.475237429E-1,-6.531161666E-1
5.432946884E1,1.674550176E-1,9.008096904E-2,-4.188790023E-1
5.442946884E1,2.929255366E-1,-1.824435294E-1,3.405723721E-2
5.452946884E1,1.013889760E-1,-2.226293981E-1,4.006096721E-1
5.462946884E1,-7.435968518E-2,3.554276228E-1,3.622890413E-1
5.472946884E1,-9.042071104E-1,-6.928024348E-3,1.197415739E-1
5.482946884E1,1.358625591E-1,-2.124372125E-1,5.943112373E-1
5.492946884E1,-4.708058834E-1,-5.060455799E-1,5.661994815E-1
5.502946884E1,-1.479033232E-1,-1.771309376E-1,3.369084895E-1
5.512946884E1,5.927124619E-2,1.224561632E-1,2.854812443E-1
5.522946884E1,-2.367852181E-1,1.306831986E-1,1.182094142E-1
5.532946884E1,3.748793900E-1,2.231290191E-1,-8.283652365E-2
5.542946884E1,-3.668855131E-2,1.674383581E-1,-6.335644722E-1
5.552946884E1,-8.633217812E-1,1.227226257E-1,-6.929689646E-2
5.562946884E1,2.006795444E-2,2.543217838E-1,-8.205378801E-2
5.572946884E1,-5.298273563E-1,4.876263440E-2,-9.234590083E-2
5.582946884E1,5.023650527E-1,1.265696809E-2,-1.438397765E-1
5.592946884E1,7.948409319E-1,3.330780892E-3,5.852181911E-1
5.602946884E1,1.122972816E-1,1.199913844E-1,1.427905858E-1
5.612946884E1,4.241249859E-1,2.381508425E-2,3.425708041E-2
5.622946884E1,4.566334188E-1,4.424276352E-1,-5.165874958E-1
5.632946884E1,-2.713920474E-1,6.272193789E-1,-2.757553458E-1
5.642946884E1,-3.159578741E-1,6.854747236E-2,-3.687008023E-1
5.652946884E1,1.384938657E-1,-9.845788777E-2,-2.044766396E-1
5.662946884E1,-1.212570816E-1,-3.912668526E-1,-1.492356360E-1
5.672946884E1,1.166422844E0,-3.693003356E-1,6.732840538E-1
5.682946884E1,1.532658935E-1,3.007695079E-1,5.153717399E-1
5.692946884E1,-3.809414208E-1,1.809113622E-1,1.771975458E-1
5.702946884E1,-2.187656909E-1,-1.981481612E-1,4.004931152E-1
5.712946884E1,-9.847453982E-2,1.322819591E-1,1.427572668E-1
5.722946884E1,-5.567400455E-1,2.550878525E-1,2.624655366E-1
5.732946884E1,2.148353681E-2,-3.839724362E-1,1.801785976E-1
5.742946884E1,-9.339343309E-1,2.415149212E-1,-1.226060465E-1
5.752946884E1,-6.824603677E-1,1.358958613E-2,-6.259536743E-1
5.762946884E1,-6.613765359E-1,4.716052711E-1,1.067515276E-2
5.772946884E1,7.852482796E-1,6.421745569E-2,-2.257436812E-1
5.782946884E1,2.079306602E0,-4.743698239E-1,-4.300371408E-1
5.792946884E1,1.551327944E0,-2.986877859E-1,-4.596810937E-1
5.802946884E1,5.916466117E-1,-3.295474648E-1,-6.355796456E-1
5.812946884E1,2.054259181E-1,3.959465921E-1,4.173468426E-2
5.822946884E1,7.230792642E-1,-1.910036355E-1,-9.784168750E-2
5.832946884E1,2.352697104E-1,-2.135030627E-1,-1.394431442E-1
5.842946884E1,4.900411367E-1,4.768845737E-1,-1.950505376E-1
5.852946884E1,-3.621891141E-1,-3.995271772E-2,-5.644508004E-1
5.862946884E1,1.570679784E0,-6.525332928E-1,-6.100491881E-1
5.872946884E1,6.136963964E-1,-5.274624825E-1,-2.639310956E-1
5.882946884E1,1.822320223E0,-8.079142570E-1,1.034623861E0
5.892946884E1,-1.316740990E0,-4.483397603E-1,1.023465753E0
5.902946884E1,-8.914835453E-1,1.909536719E-1,7.099059820E-1
5.912946884E1,2.883456945E-1,5.844188333E-1,1.617926806E-1
5.922946884E1,3.650869131E-1,3.952471316E-1,-2.040603012E-1
5.932946884E1,7.799523473E-1,-4.192287326E-1,-1.843920350E-1
5.942946884E1,-1.999467760E-1,2.709923387E-1,-3.027013838E-1
5.952946884E1,-9.310365319E-1,3.410220146E-1,7.177833002E-3
5.962946884E1,1.347817183E0,-5.619693398E-1,-5.012825131E-3
5.972946884E1,-9.607637525E-1,-4.473738372E-1,2.920595407E-1
5.982946884E1,-1.311828047E-1,2.403158396E-1,2.860474586E-1
5.992946884E1,1.402641773E0,1.377611011E-1,3.362423480E-1
6.002946884E1,5.968925953E-1,-1.291177273E-1,-3.412551582E-1
6.012946884E1,2.149353027E-1,3.896014392E-1,-3.592913449E-1
6.022946884E1,-1.566516280E0,-4.766347632E-2,-3.555608690E-1
6.032946884E1,-8.210374974E-3,2.007628232E-1,1.450888216E-1
6.042946884E1,3.954969347E-1,-3.079473674E-1,-4.929556046E-3
6.052946884E1,-2.570530176E-1,-2.200313956E-1,1.912201345E-1
6.062946884E1,6.908539534E-1,-5.955269933E-1,3.398728967E-1
6.072946884E1,-3.809913695E-1,1.288845688E-1,1.044299722E0
6.082946884E1,2.202312350E-1,1.214402765E-1,5.339574814E-1
6.092946884E1,9.549682140E-1,5.825868845E-1,-1.212237701E-1
6.102946884E1,-6.756489277E-1,4.438598752E-1,-8.446027637E-1
6.112946884E1,-2.251441330E-1,1.189371943E0,2.287080735E-1
6.122946884E1,-9.088868499E-1,5.208508968E-1,-5.359892845E-1
6.132946884E1,7.135032415E-1,-6.042036787E-2,-3.103954792E-1
6.142946884E1,1.144955978E-1,-7.139529288E-2,8.981450647E-2
6.152946884E1,9.532695264E-2,-1.069180667E-2,6.981483698E-1
6.162946884E1,5.985580087E-1,-2.455118597E-1,8.178399801E-1
6.172946884E1,2.361190617E-1,2.142524868E-1,-3.465677425E-2
6.182946884E1,-3.242848217E-1,2.648803592E-1,-3.335610628E-1
6.192946884E1,-6.863740087E-1,6.686043143E-1,-3.974121213E-1
6.202946884E1,3.650535941E-1,4.015423059E-1,-1.094827652E0
6.212946884E1,1.059171677E0,6.095329300E-3,-5.095928311E-1
6.222946884E1,-7.272593975E-1,-2.005962878E-1,2.814509869E-1
6.232946884E1,-1.068631053E0,-1.321820468E-1,-4.629785661E-3
6.242946884E1,-1.358309150E0,-4.085202888E-2,-3.436699808E-1
6.252946884E1,-1.067515276E-2,-1.576458663E-1,9.701399207E-1
6.262946884E1,-8.244348764E-1,-1.988642812E-1,1.781468242E-1
6.272946884E1,9.459251165E-1,-1.658562422E-1,-2.093895525E-1
6.282946884E1,-1.525164545E-1,-4.452587962E-1,8.809915744E-3
6.292946884E1,2.731906474E-1,-1.437232047E-1,-3.419546187E-1
6.302946884E1,-6.305168569E-2,3.885355890E-1,-8.455687165E-1
6.312946884E1,9.142993949E-3,4.443095326E-1,-5.417681932E-1
6.322946884E1,5.540587306E-1,7.081240416E-2,7.427641656E-3
6.332946884E1,-5.607369915E-2,-4.247911572E-1,-3.365754336E-2
6.342946884E1,-2.434134781E-1,1.604936868E-1,-4.152484536E-1
6.352946884E1,-3.206875920E-1,6.768146753E-1,-1.503014863E-1
6.362946884E1,-6.048032045E-1,6.052362323E-1,-1.249109507E0
6.372946884E1,5.378211737E-1,-4.473238885E-1,-8.776441216E-1
6.382946884E1,-9.077044129E-1,-3.319622874E-1,-2.166672982E-2
6.392946884E1,-7.522901893E-1,5.059456453E-2,-7.245947719E-1
6.402946884E1,5.612199306E-1,1.147620603E-1,-5.324086547E-1
6.412946884E1,-7.493258119E-1,2.619492710E-1,-6.656066179E-1
6.422946884E1,1.092029810E0,-5.718618035E-1,-1.003497720E0
6.432946884E1,5.673985556E-2,1.340472847E-1,-7.542387247E-1
6.442946884E1,-4.903392315E0,4.374980927E-1,-1.088299394E0
6.452946884E1,1.191720128E0,-1.234570622E0,-6.889553666E-1
6.462946884E1,-2.598009072E-2,3.439364433E-1,-1.840689540E0
6.472946884E1,4.134448528E0,-4.557174444E-1,-8.378912807E-1
6.482946884E1,-1.881391555E-1,3.798755631E-2,-1.411152005E0
6.492946884E1,7.422978282E-1,-1.418912709E-1,-1.271975279E0
6.502946884E1,2.530893981E-1,-1.571578979E0,-6.716519594E-2
6.512946884E1,1.356793642E-1,-1.209056854E0,3.413884044E-1
6.522946884E1,-6.589949876E-2,-7.873300314E-1,6.644241810E-1
6.532946884E1,-5.184193850E-1,-1.614096463E-1,6.424077153E-1
6.542946884E1,5.454819798E-1,1.763814986E-1,1.981814764E-2
6.552946884E1,-2.294908091E-2,9.617630392E-2,-6.397597790E-1
6.562946884E1,-3.064318560E-3,9.526033886E-3,-7.357861400E-1
6.572946884E1,-4.163476080E-2,-4.491558298E-2,-6.820606589E-1
6.582946884E1,8.571764827E-2,2.547714412E-1,-7.440298796E-1
6.592946884E1,-4.675417244E-1,1.231389716E-1,-6.015057564E-1
6.602946884E1,5.326585174E-1,-2.640809715E-1,-6.800788641E-1
6.612946884E1,6.061521769E-1,-4.967859685E-1,-2.871965766E-1
6.622946884E1,5.789396763E-1,-3.031843305E-1,2.635147274E-1
6.632946884E1,1.370283216E-1,-4.525698721E-1,3.133931756E-1
6.642946884E1,-3.891517818E-1,-2.379010320E-1,3.745629787E-1
6.652946884E1,2.534557879E-1,-9.684245288E-2,4.860441983E-1
6.662946884E1,-6.065352261E-2,5.374215171E-2,-1.856244206E-1
6.672946884E1,-7.134866118E-1,1.844753027E-1,-4.883424640E-1
6.682946884E1,1.343303919E-1,-7.199483365E-2,-8.540122509E-1
6.692946884E1,7.289414108E-2,-6.105487943E-1,-4.881925583E-1
6.702946884E1,-4.726378247E-2,-4.999002516E-1,3.297473118E-2
6.712946884E1,4.569831491E-1,-5.186192393E-1,7.188324928E-1
6.722946884E1,4.852781296E-1,-4.999335706E-1,1.249126077E0
6.732946884E1,7.459283620E-2,-3.879360557E-1,1.161659837E0
6.742946884E1,9.199617058E-2,1.945176125E-1,9.260237217E-1
6.752946884E1,5.332080722E-1,4.412785172E-1,2.362356335E-1
6.762946884E1,4.566500708E-2,4.610966742E-1,-7.947909832E-1
6.772946884E1,-2.231123596E-1,8.552945852E-1,-6.066684723E-1
6.782946884E1,-3.100624084E-1,2.993872464E-1,-3.531293869E-1
6.792946884E1,-2.198981643E-1,-9.697568417E-2,-2.358026356E-1
6.802946884E1,-5.563403368E-1,-4.342339039E-1,1.256204098E-1
6.812946884E1,1.172268391E-1,-2.904773951E-1,4.598309696E-1
6.822946884E1,-2.629485130E-1,-2.566366643E-2,4.498719275E-1
6.832946884E1,8.544619083E-1,1.614762545E-1,3.328782618E-1
6.842946884E1,-8.052162826E-2,2.699598074E-1,-5.329249427E-2
6.852946884E1,8.648372442E-2,3.212038577E-1,-1.171269119E-1
6.862946884E1,-9.526033886E-3,4.823137522E-1,-3.421877921E-1
6.872946884E1,4.906240404E-1,1.618259996E-1,-4.667090178E-1
6.882946884E1,1.537654996E-1,3.058989346E-1,-5.593547225E-1
6.892946884E1,-4.870767593E-1,8.380244672E-2,-3.779270649E-1
6.902946884E1,-2.813177705E-1,-7.412652671E-2,-7.251109928E-2
6.912946884E1,1.365953237E-1,-2.287580371E-1,2.359192222E-1
6.922946884E1,-4.877262712E-1,-7.830666006E-2,7.097893953E-2
6.932946884E1,3.497320116E-1,-4.296707455E-3,8.631718904E-2
6.942946884E1,-2.885288894E-1,2.608001418E-2,-1.149119437E-1
6.952946884E1,8.165409416E-2,-4.384973273E-2,-2.232122868E-1
6.962946884E1,1.358292550E-1,7.219468057E-2,-1.342138201E-1
6.972946884E1,1.420578081E-2,-1.293342263E-1,5.900478363E-2
6.982946884E1,-2.265264094E-1,-1.939846873E-1,2.544716597E-1
6.992946884E1,1.127469391E-1,2.398661971E-1,3.190721571E-1
7.002946884E1,-1.801952571E-1,-3.404058143E-2,4.582988024E-1
7.012946884E1,3.166573346E-1,1.226893142E-1,4.075543582E-1
7.022946884E1,-8.185893893E-1,1.467209011E-1,-1.299171150E-1
7.032946884E1,9.633950591E-1,1.284016017E-2,-2.766713202E-1
7.042946884E1,1.958499253E-1,1.947174519E-1,-3.341106474E-1
7.052946884E1,-1.895047873E-1,-1.658395827E-1,-5.566234589E-1
7.062946884E1,-1.041035578E-1,-4.025248885E-1,-1.894881278E-1
7.072946884E1,-2.313227393E-2,-8.493491262E-2,4.234755039E-1
7.082946884E1,7.928091288E-1,-2.192986161E-1,5.846353173E-1
7.092946884E1,-7.629486918E-1,8.675018698E-2,7.037773728E-1
7.102946884E1,5.258137584E-1,6.901378185E-2,7.424810529E-1
7.112946884E1,-7.589684129E-1,2.735403776E-1,-1.222230047E-1
7.122946884E1,-3.145756125E-1,3.026347458E-1,-6.097993851E-1
7.132946884E1,4.903742373E-1,3.250342607E-1,-6.784134507E-1
7.142946884E1,1.237884760E-1,1.805949509E-1,-6.697034836E-1
7.152946884E1,6.740334630E-1,-1.332145780E-1,-4.279220700E-1
7.162946884E1,-6.381776333E-1,-4.375480413E-1,1.055024862E-1
7.172946884E1,2.735070884E-1,-2.493922263E-1,3.666690290E-1
7.182946884E1,1.631249934E-1,-4.257237613E-1,5.367386937E-1
7.192946884E1,-5.119410157E-2,-3.359092772E-2,4.115846157E-1
7.202946884E1,-3.613897413E-2,-9.950707853E-2,2.303901166E-1
7.212946884E1,-8.853548765E-1,1.076508388E-1,-1.071012616E-1
7.222946884E1,2.540886402E-1,5.346736312E-1,-1.547147799E-2
7.232946884E1,-2.509743534E-2,3.080139756E-1,-1.363288611E-1
7.242946884E1,1.469040960E-1,3.129268810E-2,-9.710891545E-2
7.252946884E1,4.543185234E-2,8.718319237E-2,1.449722350E-1
7.262946884E1,-5.867004395E-1,1.354295611E-1,1.590781063E-1
7.272946884E1,-5.617029071E-1,2.947741188E-3,1.165606827E-1
7.282946884E1,-5.153217912E-1,1.866902784E-2,2.854479291E-2
7.292946884E1,4.942212701E-1,7.427641749E-2,5.812212825E-3
7.302946884E1,-4.878095388E-1,2.182327658E-1,-2.382674217E-1
7.312946884E1,3.622057736E-1,1.643906981E-1,-9.802488238E-2
7.322946884E1,7.855647057E-2,7.850650698E-2,-4.005264118E-2
7.332946884E1,-1.918529905E-2,-6.776473671E-2,-2.782367766E-1
7.342946884E1,-1.218732744E-1,-1.166772544E-1,-1.386104524E-1
7.352946884E1,-1.933518425E-2,-2.738734782E-1,-1.358792037E-1
7.362946884E1,2.498085669E-4,-7.792361826E-2,5.260968581E-2
7.372946884E1,-7.438466549E-1,-1.519668847E-1,5.631850958E-1
7.382946884E1,-4.713055212E-3,-1.284016073E-1,6.944345236E-1
7.392946884E1,-5.680646896E-1,2.053759545E-1,2.471772581E-1
7.402946884E1,7.581523657E-1,4.816142619E-1,-3.276822269E-1
7.412946884E1,-3.587251157E-2,4.493390024E-1,-8.673020601E-1
7.422946884E1,6.124140620E-1,1.038204432E-1,-4.623124003E-1
7.432946884E1,-3.254173100E-1,-2.371349484E-1,-2.201812714E-1
7.442946884E1,2.193652391E-1,-2.653633058E-1,2.239950150E-1
7.452946884E1,-2.873631418E-1,-7.314395159E-2,9.574329853E-2
7.462946884E1,2.324218899E-1,-3.653866798E-2,-4.090198874E-2
7.472946884E1,-2.554709092E-2,4.763016943E-3,2.467942089E-1
7.482946884E1,-4.261734337E-2,-5.412518978E-2,9.332848340E-2
7.492946884E1,4.255072773E-2,-1.017553583E-1,1.867069304E-1
7.502946884E1,7.850650698E-2,2.952737361E-2,1.129634380E-1
7.512946884E1,-8.453521878E-2,8.341941237E-2,-6.500019133E-2
7.522946884E1,1.875562817E-1,1.551810801E-1,-2.174333781E-1
7.532946884E1,7.034609467E-2,1.923692524E-1,1.080838405E-2
7.542946884E1,-2.806182951E-2,5.955436453E-2,-4.703895450E-1
7.552946884E1,2.252773643E-1,1.125970483E-1,-5.625022650E-1
7.562946884E1,2.780036330E-1,-3.590914905E-1,6.549980491E-2
7.572946884E1,-1.922027171E-1,-2.947907746E-1,3.829065859E-1
7.582946884E1,-2.175666094E-1,-1.698032171E-1,2.002632022E-1
7.592946884E1,5.772243440E-2,-2.371016443E-1,-5.016156286E-2
7.602946884E1,-2.435133904E-1,2.786364853E-1,-2.663125992E-1
7.612946884E1,6.010394171E-2,-3.340773284E-2,-5.541586876E-1
7.622946884E1,3.574760556E-1,-2.635647058E-1,-2.643141150E-1
7.632946884E1,-3.798589110E-1,-2.139693648E-1,2.027446330E-1
7.642946884E1,3.638878167E-1,-1.498851489E-4,4.129835367E-1
7.652946884E1,-1.568631232E-1,-1.086500734E-1,2.706259489E-1
7.662946884E1,1.150451750E-1,-2.561703622E-1,4.900245070E-1
7.672946884E1,-3.204044700E-1,1.380608678E-1,2.967892289E-1
7.682946884E1,5.255139470E-1,2.055591494E-1,-3.863706021E-3
7.692946884E1,-1.584119499E-1,2.881458700E-1,-1.626087278E-1
7.702946884E1,5.768912435E-1,5.972589850E-1,-3.582754433E-1
7.712946884E1,1.953836083E-1,4.243914485E-1,-4.735038280E-1
7.722946884E1,-2.658462822E-1,1.555807739E-1,-3.243680894E-1
7.732946884E1,1.026879773E-1,7.479268312E-2,8.388572186E-2
7.742946884E1,-4.671919942E-1,-6.323987246E-1,-4.346669186E-3
7.752946884E1,-3.246512115E-1,-1.212903857E-1,4.873765111E-1
7.762946884E1,2.042934448E-1,-2.760051787E-1,4.280386567E-1
7.772946884E1,-4.594479203E-1,1.202078834E-1,2.112048268E-1
7.782946884E1,6.248545274E-2,6.628254056E-2,-8.450191468E-2
7.792946884E1,-4.375813603E-1,3.220032454E-1,-3.783600628E-1
7.802946884E1,6.323320866E-1,7.542553544E-2,-3.791427910E-1
7.812946884E1,1.928522252E-2,-2.129701376E-1,-2.150352150E-1
7.822946884E1,1.522333473E-1,-2.020951360E-1,1.698698290E-2
7.832946884E1,-2.737568915E-1,-6.828100979E-2,-7.867304981E-2
7.842946884E1,2.465277463E-1,-1.267695278E-1,-7.744065952E-3
7.852946884E1,-5.410853773E-2,6.525000185E-2,2.634814382E-1
7.862946884E1,5.314427614E-1,-1.007727757E-1,2.001799345E-1
7.872946884E1,1.217900068E-1,-1.143457070E-1,1.221897006E-1
7.882946884E1,3.364588320E-1,1.159278303E-1,5.127737299E-2
7.892946884E1,-1.269027591E-2,3.299138695E-2,-1.244213209E-1
7.902946884E1,2.060920745E-1,-4.709724337E-2,-8.626722731E-3
7.912946884E1,1.204243824E-1,-1.005562767E-1,2.993872464E-1
7.922946884E1,3.406556249E-1,-1.735836565E-1,3.915333152E-1
7.932946884E1,-2.242947966E-1,7.327718195E-3,1.965160714E-3
7.942946884E1,-2.775040269E-1,3.055991530E-1,-7.026282698E-2
7.952946884E1,-3.384073451E-2,2.557540238E-1,-1.430903524E-1
7.962946884E1,-1.321154237E-1,-1.238384396E-1,-1.115978137E-1
7.972946884E1,7.050097585E-1,-1.320821196E-1,1.087166891E-1
7.982946884E1,5.928790197E-3,1.718183309E-1,9.804153442E-2
7.992946884E1,8.664693832E-1,1.849083006E-1,-2.788363397E-1
8.002946884E1,-9.615964442E-2,2.402825356E-1,-7.541221380E-1
8.012946884E1,5.021818280E-1,2.478101104E-2,-5.919963717E-1
8.022946884E1,-2.525231540E-1,-1.799121350E-1,-1.429071575E-1
8.032946884E1,6.503349543E-2,-1.660394371E-1,2.849649787E-1
8.042946884E1,3.705493733E-2,-3.061154187E-1,2.842988074E-1
8.052946884E1,2.511242330E-1,-3.586584926E-1,2.845153213E-1
8.062946884E1,2.199148089E-1,1.169437170E-1,7.016289979E-2
8.072946884E1,4.078541324E-2,3.535957038E-1,-9.066385776E-2
8.082946884E1,4.855279326E-1,1.392099857E-1,-1.112980470E-1
8.092946884E1,5.920130014E-1,1.436565816E-1,-3.502482772E-1
8.102946884E1,-1.769144237E-1,2.461780161E-1,-4.870101511E-1
8.112946884E1,-2.044599950E-1,-2.319555879E-1,-3.370583653E-1
8.122946884E1,-5.198016763E-1,-8.103790134E-2,-2.759552002E-2
8.132946884E1,1.715185642E-1,-4.167140126E-1,1.207574606E-1
8.142946884E1,-1.486527473E-1,-1.677214801E-1,2.159178704E-1
8.152946884E1,7.793694139E-1,-4.242082536E-1,4.699732065E-1
8.162946884E1,4.190122336E-2,-1.599107981E-1,7.496588826E-1
8.172946884E1,-2.988543212E-1,-6.408422440E-2,3.586918116E-1
8.182946884E1,-9.076378495E-2,-9.504383802E-2,-7.925593108E-2
8.192946884E1,-5.656165481E-1,2.216301709E-1,-4.468742311E-1
8.202946884E1,3.640876710E-1,2.964394987E-1,-7.920264006E-1
8.212946884E1,1.813776791E-1,1.058022603E-1,-6.306500435E-1
8.222946884E1,2.106719017E-1,4.336676747E-2,-9.106355160E-2
8.232946884E1,-5.956602097E-1,-6.300338507E-1,3.332446516E-2
8.242946884E1,-2.514240146E-1,-3.341772556E-1,3.034674525E-1
8.252946884E1,-4.676416516E-2,-2.183659971E-1,7.837993503E-1
8.262946884E1,1.681711376E-1,4.904574901E-2,5.023151040E-1
8.272946884E1,6.284683943E-1,2.691270970E-2,4.871267080E-2
8.282946884E1,1.462212857E-2,3.830731213E-1,-1.647903919E-1
8.292946884E1,-2.519069612E-1,1.138460934E-1,-2.192320079E-1
8.302946884E1,3.857544065E-1,6.531661749E-2,-3.619892895E-1
8.312946884E1,9.917400032E-2,-2.156347632E-1,-2.571529448E-1
8.322946884E1,-4.538688660E-1,-2.832162976E-1,2.996037528E-2
8.332946884E1,-2.173334509E-1,-1.053359509E-1,1.690038294E-1
8.342946884E1,-2.813344002E-1,-1.402924955E-1,1.366286278E-1
8.352946884E1,-9.053062648E-2,-7.141194493E-2,3.018187284E-1
8.362946884E1,-1.800953299E-1,-1.203910783E-1,4.469075501E-1
8.372946884E1,9.852450341E-2,-1.398761421E-1,5.004664660E-1
8.382946884E1,-1.305499673E-1,2.005962878E-1,4.367819726E-1
8.392946884E1,-5.295941830E-1,2.288246527E-2,1.336475909E-1
8.402946884E1,3.257337213E-1,1.640243083E-1,-4.986179247E-2
8.412946884E1,-9.919065982E-2,4.693903029E-1,-8.253841996E-1
8.422946884E1,3.323786259E-1,3.168238997E-1,-7.581357360E-1
8.432946884E1,2.975386679E-1,2.488259971E-1,-5.481132865E-1
8.442946884E1,1.704360694E-1,-2.953070402E-1,-6.166940928E-2
8.452946884E1,1.000233516E-1,-3.104787469E-1,3.744297326E-1
8.462946884E1,-2.204144299E-1,-2.586351335E-1,4.873765111E-1
8.472946884E1,5.562404171E-2,1.109982729E-1,3.780269921E-1
8.482946884E1,-2.123705894E-1,1.262032837E-1,3.297473071E-3
8.492946884E1,-2.406655848E-1,2.276921868E-1,-2.040103376E-1
8.502946884E1,3.491491079E-1,2.182660699E-1,-2.095893919E-1
8.512946884E1,-2.649636194E-2,1.701029837E-1,-2.690438330E-1
8.522946884E1,-1.421244293E-1,2.394831553E-2,-3.545616269E-1
8.532946884E1,-2.919096351E-1,-1.712854058E-1,-1.174599901E-1
8.542946884E1,-1.872398555E-1,1.118143201E-1,4.822970927E-2
8.552946884E1,2.979383469E-1,-1.659228504E-1,2.646805048E-1
8.562946884E1,9.409455955E-2,-1.941845268E-1,4.439431429E-1
8.572946884E1,-5.381042957E-1,5.350899696E-2,3.080805838E-1
8.582946884E1,3.574927151E-1,2.102388889E-1,1.197415739E-1
8.592946884E1,7.908939570E-2,4.828133583E-1,-4.186625183E-1
8.602946884E1,8.288981318E-1,2.159178704E-1,-6.996638775E-1
8.612946884E1,2.020951360E-1,2.290911078E-1,-1.373281032E-1
8.622946884E1,2.645139694E-1,-1.593945175E-1,1.311495006E-1
8.632946884E1,7.497587800E-2,-7.720750570E-2,-6.868070364E-2
8.642946884E1,-7.037107348E-1,6.539988518E-2,-3.501150310E-1
8.652946884E1,5.675650761E-2,1.046697944E-1,-7.009628415E-2
8.662946884E1,7.111051083E-1,-5.710623786E-2,6.455053389E-2
8.672946884E1,-2.827666402E-1,9.667591751E-2,-3.044333868E-2
8.682946884E1,-9.867271781E-1,4.338342324E-2,-2.874630392E-1
8.692946884E1,2.826334238E-1,-1.265363693E-1,8.618395776E-2
8.702946884E1,1.327815801E-1,-8.824904263E-2,-4.295042157E-2
8.712946884E1,-1.302835047E-1,-5.595711991E-3,-1.291510314E-1
8.722946884E1,2.614662945E-1,-1.386270970E-1,5.417515337E-2
8.732946884E1,-1.393099129E-1,-9.209609590E-3,1.355627831E-2
8.742946884E1,-3.441529572E-1,-6.981316954E-2,-2.498085611E-3
8.752946884E1,-4.667756557E-1,1.444060057E-1,4.178464785E-2
8.762946884E1,1.319938540E0,7.327718195E-3,1.757153571E-1
8.772946884E1,1.078839973E-1,3.573928028E-2,1.059354916E-1
8.782946884E1,-7.995373011E-1,8.945645094E-1,1.214236170E-1
8.792946884E1,3.522300720E-2,1.779136658E-1,-9.910738468E-2
8.802946884E1,5.124573112E-1,-1.098325029E-1,1.368284822E-1
8.812946884E1,-1.577124745E-2,3.064318597E-1,4.075210541E-2
8.822946884E1,-3.327116966E-1,9.324521571E-2,-1.172268391E-1
8.832946884E1,7.989211082E-1,-1.340805888E-1,4.551678598E-1
8.842946884E1,1.984312832E-1,-8.799923211E-2,6.644241810E-1
8.852946884E1,6.872900128E-1,-8.631718904E-2,2.987377346E-1
8.862946884E1,-2.697099745E-1,3.092630208E-2,-2.637312412E-1
8.872946884E1,-3.168905079E-1,7.434303313E-2,-4.568665624E-1
8.882946884E1,3.223696351E-1,-2.459781803E-2,-2.884956002E-1
8.892946884E1,1.678713597E-2,-2.511075735E-1,-1.123305857E-1
8.902946884E1,-2.123372853E-1,-1.209240034E-1,3.002532423E-1
8.912946884E1,2.133698314E-1,-4.594812170E-2,2.434634417E-1
8.922946884E1,-3.074477315E-1,5.161045119E-2,-3.185059428E-1
8.932946884E1,6.312829256E-1,2.981548607E-1,-2.349866033E-1
8.942946884E1,3.525631502E-2,-6.218568236E-2,5.277622491E-2
8.952946884E1,-1.607101783E-2,7.124540210E-2,2.761217393E-2
8.962946884E1,8.688341826E-2,-2.160344571E-1,9.580991417E-2
8.972946884E1,-5.924792886E-1,-2.485761791E-1,4.026248157E-1
8.982946884E1,7.887289673E-2,-1.536156237E-1,2.695434391E-1
8.992946884E1,-1.838091463E-1,2.751225047E-2,-3.878694400E-2
9.002946884E1,1.278020591E-1,8.994773775E-2,-3.472672105E-1
9.012946884E1,1.700863242E-1,2.813011110E-1,-3.537622392E-1
9.022946884E1,-2.403324991E-1,6.661561783E-3,-3.842055798E-1
9.032946884E1,1.510509197E-2,4.588150606E-2,-1.232388988E-2
9.042946884E1,-7.154350877E-1,-3.242348731E-1,5.089100003E-1
9.052946884E1,-2.276255637E-1,-4.736370593E-2,8.104289770E-1
9.062946884E1,9.684245288E-2,-4.321688414E-2,5.138396025E-1
9.072946884E1,-8.738303930E-2,2.701263428E-1,3.560604900E-2
9.082946884E1,2.952737212E-1,1.820937991E-1,-4.107352495E-1
9.092946884E1,3.117611073E-2,4.749194086E-1,-7.781870365E-1
9.102946884E1,1.607268304E-1,-2.468108684E-1,-7.754557729E-1
9.112946884E1,-1.906705499E-1,-1.982480884E-1,-3.107618727E-2
9.122946884E1,-4.015423059E-1,-5.968260169E-1,4.954703152E-1
9.132946884E1,3.378577530E-1,-3.182061613E-1,2.867802382E-1
9.142946884E1,-2.050095610E-2,1.553143114E-1,4.660761952E-1
9.152946884E1,3.077808022E-1,2.859475464E-2,5.088767409E-1
9.162946884E1,-6.476870179E-1,4.252241552E-1,-1.995137706E-2
9.172946884E1,1.913866699E-1,4.216102660E-1,-7.490760088E-1
9.182946884E1,4.864938557E-1,1.082670316E-1,-6.814777851E-1
9.192946884E1,4.029245675E-1,-1.030710191E-1,-2.210306227E-1
9.202946884E1,-4.235087931E-1,-2.363022566E-1,-5.912136286E-3
9.212946884E1,-4.792327583E-1,2.511408925E-2,-1.040869057E-1
9.222946884E1,1.081238151E0,-2.408321202E-1,-1.107817739E-1
9.232946884E1,-1.288296103E0,-2.912601531E-1,1.432402283E-1
9.242946884E1,-1.959998012E-1,-2.662959397E-1,5.550080538E-1
9.252946884E1,1.997802407E-1,-1.611098796E-1,1.574293673E-1
9.262946884E1,-3.338941336E-1,7.414318621E-2,1.474037170E-1
9.272946884E1,2.593179643E-1,-3.250842169E-2,4.203445464E-2
9.282946884E1,2.496919930E-1,-3.717651069E-1,1.471622348E0
9.292946884E1,1.280685235E-2,-2.306232750E-1,1.172368288E0
9.302946884E1,1.331479698E-1,4.465245008E-1,-8.095796108E-1
9.312946884E1,2.885288894E-1,6.965162754E-1,-1.779553056E0
9.322946884E1,2.257436812E-1,3.528629243E-1,-1.069147348E0
9.332946884E1,-5.162710324E-3,-4.763516486E-1,4.770677686E-1
9.342946884E1,1.940179989E-2,-2.849649787E-1,5.771077871E-1
9.352946884E1,-1.613596827E-1,1.495520677E-2,-4.285049811E-2
9.362946884E1,-4.953037798E-1,-2.931087278E-2,-1.326317042E-1
9.372946884E1,-7.715754211E-2,-2.504747361E-2,-2.851148508E-2
9.382946884E1,-1.261366755E-1,-6.595945358E-1,-3.602905869E-1
9.392946884E1,-6.571631134E-2,1.112480834E-1,-1.246378273E-1
9.402946884E1,1.816108376E-1,9.521037340E-2,1.167438701E-1
9.412946884E1,1.211405024E-1,-4.068548977E-2,2.250941843E-1
9.422946884E1,1.832429171E-1,-9.464414418E-2,2.148520201E-1
9.432946884E1,-3.060987778E-2,-8.340275288E-2,8.253674954E-2
9.442946884E1,-4.996171594E-2,4.884590209E-2,3.448857069E-1
9.452946884E1,-2.113047391E-1,1.087999567E-1,2.156680636E-2
9.462946884E1,5.696634650E-1,1.088166162E-1,-3.686674833E-1
9.472946884E1,3.218367100E-1,6.744831335E-3,-4.186958075E-1
9.482946884E1,-1.446058601E-1,-1.424575001E-1,2.561037540E-1
9.492946884E1,-1.075176075E-1,-3.093962371E-1,4.569664896E-1
9.502946884E1,-3.169238195E-2,-1.792126745E-1,2.574860156E-1
9.512946884E1,-2.373847663E-1,1.146954447E-1,-1.254372150E-1
9.522946884E1,6.593281031E-2,1.540319622E-1,-2.111881673E-1
9.532946884E1,1.001232788E-1,-7.727412041E-3,6.288514286E-2
9.542946884E1,1.075176075E-1,1.153949052E-1,2.432802469E-1
9.552946884E1,-1.698698290E-2,1.055191383E-1,1.396596432E-1
9.562946884E1,-2.268428355E-1,3.436533213E-1,-3.282817602E-1
9.572946884E1,-2.695268095E-1,1.628918499E-1,-3.323286772E-1
9.582946884E1,1.933185309E-1,3.610566631E-2,1.222230047E-1
9.592946884E1,1.177098006E-1,1.751990803E-2,1.238384396E-1
9.602946884E1,3.353929818E-1,2.030777186E-1,-1.592612863E-1
9.612946884E1,4.719217122E-1,-3.712155297E-2,-4.112015665E-1
9.622946884E1,1.585784853E-1,8.663361520E-2,-4.096860588E-1
9.632946884E1,1.511674970E-1,-1.471039355E-1,-1.691870242E-1
9.642946884E1,-2.631316893E-3,-1.706026047E-1,-7.384341210E-2
9.652946884E1,-7.943912409E-3,-3.961963952E-2,-1.755155027E-1
9.662946884E1,4.934552014E-1,-1.671552360E-1,-1.682377458E-1
9.672946884E1,3.336110115E-1,-2.087900043E-1,-1.241382062E-1
9.682946884E1,-5.019487068E-2,-2.276755273E-1,-1.478866786E-1
9.692946884E1,-1.141791716E-1,-8.333613724E-2,1.046364829E-1
9.702946884E1,8.645042032E-2,-1.085334942E-1,3.566766679E-1
9.712946884E1,-2.643474340E-1,-1.580622047E-1,4.443428218E-1
9.722946884E1,4.549846798E-2,9.992342442E-3,-1.188589185E-1
9.732946884E1,-6.771144867E-1,2.256604135E-1,-3.551611602E-1
9.742946884E1,-2.599841058E-1,2.228292450E-2,-1.173933744E-1
9.752946884E1,2.914433368E-2,-1.430903524E-1,3.779270649E-1
9.762946884E1,-7.391002774E-2,-2.020118572E-2,2.197982371E-1
9.772946884E1,-2.783866823E-1,2.584519386E-1,-1.412917227E-1
9.782946884E1,5.949274302E-1,2.655132115E-1,-5.262300968E-1
9.792946884E1,-8.065485954E-2,1.164441034E-1,-2.712254822E-1
9.802946884E1,-1.648236960E-1,5.462480709E-2,-1.660727412E-1
9.812946884E1,7.472606748E-2,-4.658097029E-2,1.483696401E-1
9.822946884E1,-3.374580741E-1,-3.192054033E-1,4.227926731E-1
9.832946884E1,1.157113314E-1,-5.012825131E-3,5.542919040E-1
9.842946884E1,-3.350932300E-1,2.629818022E-1,3.341439366E-1
9.852946884E1,-2.209140509E-1,2.415482402E-1,3.317457810E-2
9.862946884E1,-8.255340904E-2,2.290244997E-1,-2.536556125E-1
9.872946884E1,-3.987610936E-1,1.006895080E-1,-3.345603049E-1
9.882946884E1,-3.184393048E-1,7.537557185E-2,-2.598342299E-1
9.892946884E1,2.062919140E-1,-1.776805073E-1,1.644406617E-1
9.902946884E1,1.910202950E-2,-1.275022924E-1,3.820405900E-2
9.912946884E1,-1.655564606E-1,-1.550478488E-1,-9.361159801E-2
9.922946884E1,-3.996270895E-1,8.809915744E-3,5.717285350E-2
9.932946884E1,-3.240516782E-1,-6.686542928E-2,2.473271340E-1
9.942946884E1,1.074010357E-1,1.810279489E-2,1.270193309E-1
9.952946884E1,1.904040873E-1,1.066682637E-1,-1.362289395E-2
9.962946884E1,7.619161159E-2,1.415748447E-1,4.150152951E-2
9.972946884E1,1.405589581E-1,1.935683340E-1,2.281584963E-2
9.982946884E1,5.051129311E-2,3.383740485E-1,-3.070646822E-1
9.992946884E1,3.909504116E-1,5.892151594E-2,9.675919078E-3
1.000294688E2,7.044601440E-2,-2.225294709E-1,5.162710324E-2
1.001294688E2,4.145156965E-2,6.636580825E-2,-2.908271253E-1
1.002294688E2,-1.177597642E-1,4.275057465E-2,-2.577025294E-1
1.003294688E2,8.238520026E-1,-3.565434515E-1,-6.173602492E-2
1.004294688E2,7.086902857E-1,-6.884723902E-2,1.000899635E-2
1.005294688E2,-1.432235818E-2,-1.237385161E-2,-2.492256910E-1
1.006294688E2,-1.215401962E-1,-2.866969705E-1,-3.706493080E-1
1.007294688E2,-2.923426330E-1,-2.240449786E-1,8.703163862E-1
1.008294688E2,-4.670254588E-1,-5.645840168E-1,1.240615964E0
1.009294688E2,-4.303535521E-1,2.214303166E-1,6.906707287E-1
1.010294688E2,-3.336776495E-1,4.918564260E-1,-4.705893993E-1
1.011294688E2,-7.349368185E-2,4.069548249E-1,-5.699799061E-1
1.012294688E2,1.194950938E0,-8.067151159E-2,3.099291772E-2
1.013294688E2,3.678014874E-1,5.620693043E-2,-5.131401420E-1
1.014294688E2,-3.459848762E-1,2.125870883E-1,-7.161012292E-1
1.015294688E2,2.787863649E-2,-2.923926115E-1,-2.025614381E-1
1.016294688E2,2.592513263E-1,-2.550379038E-1,2.001632750E-1
1.017294688E2,8.124274611E-1,-3.506146669E-1,-5.495788530E-3
1.018294688E2,1.728508770E-1,1.175765693E-2,3.848217726E-1
1.019294688E2,3.282484785E-2,-5.167706683E-2,2.518070340E-1
1.020294688E2,-5.397530794E-1,-4.400461316E-1,3.104287945E-2
1.021294688E2,-7.205811739E-1,1.020884365E-1,4.774674401E-2
1.022294688E2,5.696301460E-1,5.476136804E-1,-5.817542076E-1
1.023294688E2,6.355629563E-1,3.139261156E-2,-2.668621838E-1
1.024294688E2,8.918998837E-1,-2.103055120E-1,3.292643428E-1
1.025294688E2,-3.845386505E-1,-3.080972470E-3,-2.033941448E-1
1.026294688E2,2.418813109E-1,2.053426392E-2,2.583520114E-1
1.027294688E2,5.695968270E-1,-8.280321211E-2,1.597775668E-1
1.028294688E2,2.595677674E-1,2.473104931E-2,2.500084341E-1
1.029294688E2,5.522767901E-1,-1.709356755E-1,-4.491558075E-1
1.030294688E2,-9.403460622E-1,9.334513545E-2,-1.303667724E-1
1.031294688E2,6.221899018E-2,1.101655811E-1,-1.311495006E-1
1.032294688E2,1.440163016E0,-3.299138695E-2,-1.514839232E-1
1.033294688E2,1.018536210E0,-3.747128649E-3,-1.611098796E-1
1.034294688E2,-9.241085052E-1,-1.528828442E-1,-5.945444107E-3
1.035294688E2,-2.115112543E0,-7.557541877E-2,1.764314622E-1
1.036294688E2,-9.852449894E-1,1.280352175E-1,1.218399704E-1
1.037294688E2,9.362325668E-1,-3.753790259E-2,2.797189951E-1
1.038294688E2,7.509745359E-1,5.044467747E-2,2.181328386E-1
1.039294688E2,2.273258008E-2,9.387806058E-2,-3.345603049E-1
1.040294688E2,-2.364471436E0,2.655631602E-1,-4.391468167E-1
1.041294688E2,-4.802986234E-2,-2.100057341E-2,-3.206376433E-1
1.042294688E2,-3.578257859E-1,1.585784853E-1,4.591481388E-2
1.043294688E2,8.440865278E-1,-4.030244797E-2,1.502848417E-1
1.044294688E2,8.638380468E-2,-2.508077919E-1,9.059724212E-2
1.045294688E2,-8.727645278E-1,-3.281984925E-1,4.582321942E-1
1.046294688E2,-1.709356755E-1,-1.517170761E-2,6.726012826E-1
1.047294688E2,9.254574776E-1,1.492189914E-1,2.231290191E-1
1.048294688E2,-3.203545213E-1,2.263265699E-1,-1.745329201E-1
1.049294688E2,-3.903175592E-1,1.687873304E-1,-4.634948373E-1
1.050294688E2,2.218300104E-1,1.290011406E-1,-4.120675623E-1
1.051294688E2,8.393567987E-3,-8.511810750E-2,-1.856410801E-1
1.052294688E2,-1.009060070E-1,-2.382341027E-1,3.114280291E-2
1.053294688E2,-1.092496142E-1,-2.134197950E-1,3.951804936E-1
1.054294688E2,2.495804071E0,-4.611133039E-1,5.592714548E-1
1.055294688E2,9.357662797E-1,-4.017754495E-1,7.009295225E-1
1.056294688E2,-8.586420417E-1,-5.069948435E-1,3.991940990E-2
1.057294688E2,-1.208340764E0,5.175700784E-1,-5.550413132E-1
1.058294688E2,-2.522067428E-1,2.505246997E-1,-4.692071080E-1
1.059294688E2,9.962365627E-1,-3.262166977E-1,3.943644837E-2
1.060294688E2,1.169770285E-1,-3.706159890E-1,7.510578036E-1
1.061294688E2,-9.675585628E-1,-3.481165767E-1,6.121309400E-1
1.062294688E2,9.571998119E-1,-9.532695264E-2,5.103256106E-1
1.063294688E2,-1.224844694E0,1.257036775E-1,-2.140026726E-2
1.064294688E2,-6.893217564E-1,3.799088895E-1,-4.619793221E-2
1.065294688E2,1.191503644E0,-7.932254672E-2,2.705926597E-1
1.066294688E2,-2.327050120E-1,1.123805493E-1,1.284682155E-1
1.067294688E2,-5.326917768E-1,3.572429121E-1,-1.812611073E-1
1.068294688E2,-1.604437232E-1,1.947674155E-1,-2.786198258E-2
1.069294688E2,-6.586785913E-1,-5.037306547E-1,-1.514173001E-1
1.070294688E2,-2.798022628E-1,1.676048934E-1,-9.792496264E-2
1.071294688E2,6.045367569E-3,1.712687612E-1,1.750325412E-2
1.072294688E2,4.236420393E-1,-8.858212084E-2,2.349699438E-1
1.073294688E2,6.879728287E-2,-9.099693596E-2,-2.986211777E-1
1.074294688E2,-2.219465822E-1,1.077674180E-1,8.656699955E-2
1.075294688E2,-6.003566384E-1,2.876129448E-1,-4.894749224E-1
1.076294688E2,-1.927356422E-1,2.217967063E-1,-4.284716547E-1
1.077294688E2,3.992107511E-1,7.479268312E-2,-1.227892414E-1
1.078294688E2,-4.343338311E-2,-1.656397432E-1,1.777970940E-1
1.079294688E2,-9.544019699E-1,4.806317016E-2,-5.737270042E-2
1.080294688E2,1.327482760E-1,6.666558236E-2,-3.033175766E-1
1.081294688E2,-7.494257297E-3,2.301070094E-1,-6.457052231E-1
1.082294688E2,3.324452341E-1,3.938648477E-2,-5.523267388E-1
1.083294688E2,-1.603437960E-1,-6.684877723E-2,-1.463711709E-1
1.084294688E2,6.456385851E-1,-2.006462514E-1,7.700765878E-2
1.085294688E2,7.922096252E-1,-1.751491129E-1,2.424808592E-1
1.086294688E2,-8.826069832E-1,-9.770845622E-2,8.600076288E-2
1.087294688E2,5.914800763E-1,-1.838757694E-1,-2.330380976E-1
1.088294688E2,-3.749793172E-1,1.871898919E-1,3.295807913E-2
1.089294688E2,9.089701623E-2,-1.105153114E-1,-2.589515746E-1
1.090294688E2,-1.286347657E-1,-3.382408246E-2,-2.677947879E-1
1.091294688E2,-3.339108080E-2,-8.545118570E-2,4.354996234E-2
1.092294688E2,7.439298928E-2,-6.067017466E-2,2.464944422E-1
1.093294688E2,4.721215367E-1,1.105819270E-1,-7.744065672E-2
1.094294688E2,-4.778005183E-2,4.932886735E-2,-1.878560483E-1
1.095294688E2,4.780836403E-1,-1.646405011E-1,-2.021950632E-1
1.096294688E2,3.357427120E-1,9.242917411E-3,-1.379609406E-1
1.097294688E2,5.146056414E-1,-3.808414936E-1,3.368418813E-1
1.098294688E2,5.460815430E-1,-4.732540250E-1,1.019635320E0
1.099294688E2,-9.056393802E-2,-2.417314351E-1,1.099307656E0
1.100294688E2,-2.537222505E-1,3.410886228E-1,6.415750384E-1
1.101294688E2,9.047400355E-1,3.943144977E-1,-2.256437540E-1
1.102294688E2,5.343405604E-1,2.942578495E-1,-7.524234056E-1
1.103294688E2,-4.399961606E-2,9.130170345E-1,2.500917017E-1
1.104294688E2,-3.326950669E-1,2.180995345E-1,-5.037806183E-2
1.105294688E2,4.537189901E-1,-1.637411863E-1,2.843654156E-1
1.106294688E2,6.033709645E-2,-6.200248748E-2,2.767545879E-1
1.107294688E2,-4.860941768E-1,-1.934184432E-1,7.201148570E-2
1.108294688E2,-1.851747632E-1,9.076378308E-3,2.763881981E-1
1.109294688E2,-7.436301708E-1,-6.328483578E-4,3.171069920E-1
1.110294688E2,6.961332168E-3,1.305000037E-1,1.236885488E-1
1.111294688E2,3.200880587E-1,2.305233479E-1,-2.452953607E-1
1.112294688E2,2.314892784E-2,-1.148786321E-1,-3.178064525E-1
1.113294688E2,-2.116544694E-1,-1.657396555E-1,-3.449023664E-1
1.114294688E2,1.943843812E-1,-9.309533052E-3,-1.049195975E-2
1.115294688E2,-3.567266464E-1,-9.251244366E-2,1.585118622E-1
1.116294688E2,-7.334379852E-2,3.327450156E-2,2.615495622E-1
1.117294688E2,2.580522597E-1,1.533658057E-1,1.162609085E-1
1.118294688E2,-1.916364878E-1,5.507446453E-2,-1.803617924E-2
1.119294688E2,-3.611565828E-1,1.864404678E-1,-6.146956235E-2
1.120294688E2,-2.556540966E-1,3.022184074E-1,-2.552377582E-1
1.121294688E2,8.563438058E-2,1.015222073E-1,-3.558439910E-1
1.122294688E2,-1.519335806E-1,4.228426516E-2,-2.043933719E-1
1.123294688E2,-9.705895931E-2,-6.093663722E-2,-6.231891364E-2
1.124294688E2,-7.086236775E-2,-1.664557755E-1,-2.464777976E-1
1.125294688E2,7.282752544E-2,4.839624837E-2,-3.655032516E-1
1.126294688E2,-1.310828775E-1,1.219065860E-2,-3.367086351E-1
1.127294688E2,8.093797602E-3,-2.901110351E-1,-1.240549386E-1
1.128294688E2,-1.458049417E-1,-2.141025960E-1,-6.779804826E-2
1.129294688E2,9.339676499E-1,-4.404291809E-1,2.806349397E-1
1.130294688E2,-2.393998802E-1,-2.149852514E-1,4.540853798E-1
1.131294688E2,1.841921918E-2,-3.534458280E-1,4.189622700E-1
1.132294688E2,1.221397370E-1,-1.381108314E-1,3.391567767E-1
1.133294688E2,-1.263864785E-1,1.234220862E-1,3.294142336E-2
1.134294688E2,-4.672419429E-1,1.394764483E-1,-1.409753114E-1
1.135294688E2,8.896516263E-2,1.517503858E-1,-1.868734658E-1
1.136294688E2,-2.869634330E-1,-8.040504903E-2,-3.493989259E-2
1.137294688E2,-1.658229232E-1,-2.304900438E-2,2.947741188E-3
1.138294688E2,3.247844577E-1,-9.799157828E-2,-1.490524504E-2
1.139294688E2,-3.289978802E-1,-1.726010740E-1,2.784699500E-1
1.140294688E2,-4.906240478E-2,-8.783269674E-2,6.708692312E-1
1.141294688E2,3.986778259E-1,1.880225912E-2,4.139827788E-1
1.142294688E2,2.429804765E-2,2.734404504E-1,5.482465401E-2
1.143294688E2,-1.401959062E0,6.569965482E-1,-1.193085760E-1
1.144294688E2,1.119475514E-1,2.876962125E-1,-1.809280217E-1
1.145294688E2,3.030677736E-1,3.587251157E-2,-1.752157360E-1
1.146294688E2,6.921362877E-2,1.652067304E-1,-3.265664279E-1
1.147294688E2,-3.359592259E-1,-5.895482376E-2,-2.307565063E-1
1.148294688E2,-6.803953052E-1,1.990641207E-1,-1.332312357E-2
1.149294688E2,-8.540122211E-2,9.411121905E-2,-2.910103202E-1
1.150294688E2,1.314992309E-1,8.160413243E-3,-1.237385161E-2
1.151294688E2,2.651634812E-1,-1.331812739E-1,2.240116745E-1
1.152294688E2,2.909437194E-2,-7.517572492E-2,2.760384679E-1
1.153294688E2,3.743964434E-1,4.011925682E-2,1.699197888E-1
1.154294688E2,-3.835727274E-1,-4.937882721E-2,-1.262366027E-1
1.155294688E2,-4.514207542E-1,4.271726683E-2,-2.266929597E-1
1.156294688E2,2.221131325E-1,9.482733160E-2,-1.546148509E-1
1.157294688E2,-1.351964027E-1,-2.459781803E-2,1.524831504E-1
1.158294688E2,2.553876340E-1,-1.773640811E-1,5.822371840E-1
1.159294688E2,3.998602554E-2,1.084668785E-1,4.912735522E-1
1.160294688E2,-6.110317633E-2,1.849749237E-1,3.383573890E-1
1.161294688E2,3.251341879E-1,7.295908928E-1,1.245045960E-1
1.162294688E2,6.993141174E-1,7.840158939E-1,-8.892352581E-1
1.163294688E2,-1.973154694E-1,5.015156865E-1,-1.198731422E0
1.164294688E2,2.707758248E-1,2.965061069E-1,-7.481266856E-1
1.165294688E2,-1.971489191E-1,8.063820750E-2,-4.159645736E-1
1.166294688E2,6.740168333E-1,-4.501550645E-2,-3.904508054E-1
1.167294688E2,6.154117584E-1,-1.998302042E-1,-5.775574446E-1
1.168294688E2,-2.452120930E-1,-1.279019937E-2,-6.004399061E-1
1.169294688E2,-2.394831553E-2,-1.223062798E-1,-7.037606835E-1
1.170294688E2,2.071912289E-1,9.121343493E-2,-3.393066525E-1
1.171294688E2,1.771142781E-1,-3.282484785E-2,-2.972055972E-1
1.172294688E2,-6.007063389E-1,3.121774495E-1,-5.614531040E-1
1.173294688E2,-5.870501325E-2,3.850382939E-2,-1.084885359E0
1.174294688E2,-6.136464477E-1,-3.089632392E-1,-9.689908028E-1
1.175294688E2,1.216018200E0,-2.619659305E-1,-3.441695869E-1
1.176294688E2,-1.637261987E0,-2.145022899E-2,5.320922658E-2
1.177294688E2,5.422178507E-1,-5.844687819E-1,5.343238711E-1
1.178294688E2,-1.967175841E0,-9.197785258E-1,3.991940916E-1
1.179294688E2,2.119375914E-1,-5.188024640E-1,1.455717832E-1
1.180294688E2,-2.688439786E-1,-1.049562335E0,6.700865030E-1
1.181294688E2,1.643407345E-1,-3.028013110E-1,4.303202331E-1
1.182294688E2,-2.842821479E-1,-1.042034850E-1,4.333179593E-1
1.183294688E2,1.825317979E0,-2.099890858E-1,7.095395923E-1
1.184294688E2,8.701664954E-2,1.221730486E-1,1.882224381E-1
1.185294688E2,1.020035028E0,-7.067251205E-1,3.099624813E-1
1.186294688E2,-6.987312436E-1,1.479599476E0,7.942580581E-1
1.187294688E2,2.164224863E0,-3.278820813E-1,7.766382098E-1
1.188294688E2,6.993807554E-1,-5.474471450E-1,6.600441933E-1
1.189294688E2,-2.204627275E0,-1.774140447E-1,5.607702732E-1
1.190294688E2,4.234088659E-1,1.381607950E-1,2.836826146E-1
1.191294688E2,-2.804517560E-2,1.026097059E0,-4.510377049E-1
1.192294688E2,8.294144273E-1,1.365686774E0,2.097725868E-1
1.193294688E2,-1.153732538E0,1.523166150E-1,-7.333713770E-1
1.194294688E2,1.135763049E0,-7.081240416E-2,-4.922061563E-1
1.195294688E2,1.084485650E0,-8.008863032E-2,-6.507846117E-1
1.196294688E2,5.240983889E-2,8.576761000E-3,-1.432402283E-1
1.197294688E2,-3.541286290E-1,-1.740499586E-1,2.801852822E-1
1.198294688E2,-1.487027109E-1,-5.112082362E-1,3.963962495E-1
1.199294688E2,5.081106424E-1,-7.505415082E-1,1.925357878E-1
1.200294688E2,-7.998870313E-2,-1.105652750E-1,1.277187914E-1
1.201294688E2,-1.116377831E0,1.398095340E-1,2.630484402E-1
1.202294688E2,-1.564467847E-1,7.161179092E-4,-1.399927288E-1
1.203294688E2,-8.342940211E-1,-4.220099375E-2,-1.498518288E-1
1.204294688E2,-5.030145645E-1,-5.832863450E-1,-1.531160027E-1
1.205294688E2,-2.614080191E0,9.449425340E-2,1.188422665E-1
1.206294688E2,3.700664043E-1,-3.988610208E-2,9.561006725E-2
1.207294688E2,3.180895746E-2,1.776638627E-1,5.114247799E-1
1.208294688E2,2.576026022E-1,-1.926523745E-1,1.606435627E-1
1.209294688E2,2.741898894E-1,1.899044812E-1,-2.667622566E-1
1.210294688E2,1.109316573E-1,7.155183554E-1,-3.528962433E-1
1.211294688E2,-6.155283377E-2,1.254038960E-1,-4.871100485E-1
1.212294688E2,2.280585766E-1,-2.880626023E-1,-3.259835243E-1
1.213294688E2,4.853947163E-1,-1.598441750E-1,4.563169926E-2
1.214294688E2,-6.678882241E-1,-1.340472847E-1,1.263531744E-1
1.215294688E2,-9.293544888E-1,-2.624655366E-1,3.279320300E-1
1.216294688E2,-6.943012774E-2,-2.061920017E-1,-5.350899696E-2
1.217294688E2,-7.933254242E-1,-5.267630145E-2,3.435367346E-1
1.218294688E2,4.596144557E-1,-9.414452314E-2,4.540520608E-1
1.219294688E2,2.214469761E-1,3.282484785E-2,2.972555459E-1
1.220294688E2,6.808949113E-1,-2.181661548E-3,2.581355162E-3
1.221294688E2,-1.602771729E-1,-9.854115546E-2,-3.953970075E-1
1.222294688E2,-2.503581643E-1,4.459915757E-1,-7.973889261E-2
1.223294688E2,1.951837726E-2,-1.617760360E-1,1.124804765E-1
1.224294688E2,-7.904442549E-1,2.012957484E-1,2.361190617E-1
1.225294688E2,5.134398937E-1,3.589082956E-1,3.755455613E-1
1.226294688E2,4.778005183E-2,-1.081338003E-1,2.344869822E-2
1.227294688E2,-1.686374396E-1,-1.654898524E-1,6.546650082E-2
1.228294688E2,-1.095826924E-1,-1.518836152E-2,2.024115622E-1
1.229294688E2,-5.815377235E-1,1.415415406E-1,6.997970492E-2
1.230294688E2,1.117660165E0,-1.870899647E-1,-3.707658947E-1
1.231294688E2,7.808016539E-1,1.940512955E-1,-4.667423368E-1
1.232294688E2,4.086868092E-2,1.852247268E-1,-1.475869119E-1
1.233294688E2,-1.139959767E-1,-3.673851490E-2,2.550379038E-1
1.234294688E2,-2.486927658E-1,-4.300704300E-1,2.461447120E-1
1.235294688E2,2.390501499E-1,-3.537122905E-1,-8.451856673E-2
1.236294688E2,3.295807913E-2,1.160777174E-2,1.511341929E-1
1.237294688E2,9.542687237E-2,-5.477469414E-2,-3.480666131E-2
1.238294688E2,-6.643075943E-1,-2.175333053E-1,-4.466577247E-2
1.239294688E2,-9.770845771E-1,5.707293004E-2,-3.332446516E-2
1.240294688E2,-4.737869501E-1,-1.519668847E-1,1.140126288E-1
1.241294688E2,-5.985913277E-1,-1.966826171E-1,-1.908537559E-2
1.242294688E2,3.894682229E-1,6.398430467E-2,-1.584785581E-1
1.243294688E2,-3.679513633E-1,9.021420032E-2,-4.596477747E-2
1.244294688E2,-7.294743657E-1,3.405057490E-1,-4.281719029E-2
1.245294688E2,2.105886191E-1,-1.151284426E-1,-9.820807725E-2
1.246294688E2,-3.994272649E-1,-1.587949842E-1,-1.870233566E-2
1.247294688E2,1.174716473E0,3.380742669E-2,2.951071970E-2
1.248294688E2,-6.650570631E-1,4.536024034E-1,9.566003084E-2
1.249294688E2,6.602773666E-1,-3.173568249E-1,-7.902278006E-2
1.250294688E2,-2.466110289E-1,-2.411152273E-1,6.871400774E-2
1.251294688E2,5.014490709E-2,-6.603273004E-2,3.306299746E-1
1.252294688E2,4.090865254E-1,-1.531160027E-1,4.506546631E-2
1.253294688E2,-5.148221850E-1,3.088633120E-1,2.726577222E-1
1.254294688E2,1.459048539E-1,-1.613263786E-1,2.512075007E-1
1.255294688E2,4.695068896E-1,-3.453520238E-1,2.488093376E-1
1.256294688E2,-2.785698771E-1,-6.661561929E-5,-2.216634713E-2
1.257294688E2,2.054592222E-1,1.214735806E-1,-3.414883316E-1
1.258294688E2,-2.668122053E-1,-7.674119622E-2,-6.338475943E-1
1.259294688E2,-5.659329891E-1,7.745730877E-2,-4.458749890E-1
1.260294688E2,2.895781100E-1,-1.715352237E-1,-1.181261465E-1
1.261294688E2,-7.992541790E-1,1.825767606E-1,3.988610208E-2
1.262294688E2,1.159494758E0,5.295941606E-3,-1.487193722E-2
1.263294688E2,-1.245212480E-1,2.954902351E-1,1.022716314E-1
1.264294688E2,-3.499651551E-1,-3.468508720E-1,1.866403073E-1
1.265294688E2,1.663225442E-1,-2.647970803E-3,4.722381234E-1
1.266294688E2,-2.012457848E-1,3.086135089E-1,5.874664783E-1
1.267294688E2,-1.596443355E-1,-8.053828031E-2,2.021284401E-1
1.268294688E2,-4.833296239E-1,-4.911236465E-2,-8.796592802E-2
1.269294688E2,-9.889088571E-2,2.178330719E-1,-9.113016725E-2
1.270294688E2,-6.846420467E-2,4.837959260E-2,-3.008528054E-1
1.271294688E2,2.537555397E-1,-1.280019134E-1,-2.641309202E-1
1.272294688E2,1.867735386E-1,-1.710022986E-1,-2.839490771E-2
1.273294688E2,-5.297607183E-2,-2.333545089E-1,2.619159520E-1
1.274294688E2,2.433135547E-2,-1.393265724E-1,1.972988099E-1
1.275294688E2,3.400727361E-2,-6.305168569E-2,-7.862308621E-2
1.276294688E2,-3.013024330E-1,3.408887684E-1,1.202245355E-1
1.277294688E2,3.444027528E-2,2.619659156E-2,5.484130979E-2
1.278294688E2,-3.543451428E-1,4.429938737E-3,-3.655532002E-2
1.279294688E2,1.494687945E-1,-1.689871699E-1,-8.030512929E-2
1.280294688E2,-1.873564273E-1,-5.294276401E-2,1.628751867E-2
1.281294688E2,1.534490734E-1,-7.595846057E-2,1.513506919E-1
1.282294688E2,-2.182993889E-1,-3.682178259E-2,1.993472427E-1
1.283294688E2,2.174000740E-1,-7.845654339E-2,-3.015022874E-1
1.284294688E2,-2.916931510E-1,2.247111350E-1,-1.564467847E-1
1.285294688E2,-6.354630589E-1,9.064720571E-2,-3.567599356E-1
1.286294688E2,2.185158879E-1,-1.690537930E-1,-1.323985402E-2
1.287294688E2,-1.996470094E-1,-1.668055058E-1,2.404157668E-1
1.288294688E2,4.345503449E-1,-2.411485463E-2,4.751192629E-1
1.289294688E2,-3.645539656E-2,-1.853079945E-1,4.984180629E-1
1.290294688E2,-1.602105647E-1,-4.526697993E-1,3.374580741E-1
1.291294688E2,-2.793026268E-1,9.859112091E-3,-5.239318311E-2
1.292294688E2,-1.215102196E0,3.059655428E-1,-3.050662279E-1
1.293294688E2,-1.086833850E-1,3.687008023E-1,-1.874563545E-1
1.294294688E2,-2.944410406E-2,3.911669254E-1,-2.083237022E-1
1.295294688E2,1.937182248E-1,1.896046996E-1,-5.124906301E-1
1.296294688E2,2.088066638E-1,2.138194889E-1,-7.611833811E-1
1.297294688E2,-3.209707141E-1,2.119875550E-1,-4.880093634E-1
1.298294688E2,-4.861108363E-1,-4.844454229E-1,-2.325218171E-1
1.299294688E2,-2.748227417E-1,-7.044601720E-3,-1.261533350E-1
1.300294688E2,2.612997591E-1,-5.625689030E-2,-5.452488363E-2
1.301294688E2,7.083572149E-1,-7.144524902E-2,2.943577766E-1
1.302294688E2,-1.750825047E-1,-1.360124350E-1,4.276722670E-1
1.303294688E2,5.680313706E-1,-3.727810085E-1,1.044033319E-1
1.304294688E2,3.021184802E-1,1.930187643E-1,-4.874597862E-2
1.305294688E2,-7.880294919E-1,-1.282184124E-1,2.304900438E-2
1.306294688E2,1.907538325E-1,1.690537930E-1,4.031910300E-1
1.307294688E2,6.038872600E-1,1.570796371E-1,-8.078809083E-2
1.308294688E2,4.765847921E-1,4.072379470E-1,-7.818342447E-1
1.309294688E2,6.157115102E-1,2.925424874E-1,-5.522767901E-1
1.310294688E2,-4.067383111E-1,-1.529661119E-1,-4.105687141E-1
1.311294688E2,-4.335844219E-1,-1.272857934E-1,-1.531992704E-1
1.312294688E2,-2.654965520E-1,-2.177831084E-1,2.888286710E-1
1.313294688E2,2.201979309E-1,-1.182260737E-1,8.157082647E-2
1.314294688E2,3.306632936E-1,4.982848465E-2,3.921994567E-2
1.315294688E2,-2.764215171E-1,2.659795284E-1,1.309829652E-1
1.316294688E2,2.172668427E-1,5.152717978E-2,5.263966322E-1
1.317294688E2,7.346370220E-1,2.991374433E-1,1.453719288E-1
1.318294688E2,-1.502348781E-1,-1.049195975E-2,-4.484230280E-1
1.319294688E2,-4.412951767E-1,1.907205135E-1,-6.322155595E-1
1.320294688E2,3.483164310E-1,2.578024380E-2,-7.532894015E-1
1.321294688E2,-1.938347965E-1,-4.018587247E-2,-2.579023838E-1
1.322294688E2,5.457984209E-1,-2.706592679E-1,7.377679646E-2
1.323294688E2,1.216068149E0,-5.272959471E-1,2.497252971E-1
1.324294688E2,-1.531659663E-1,-1.570629776E-1,2.251607925E-2
1.325294688E2,3.082637787E-1,-1.707358360E-1,-2.784866095E-1
1.326294688E2,2.846485376E-1,-1.310495734E-1,1.479366422E-1
1.327294688E2,1.135296673E-1,-3.866204023E-1,4.700897634E-1
1.328294688E2,2.493922263E-1,-2.344536781E-1,6.906874180E-1
1.329294688E2,-5.789230466E-1,-2.286081463E-1,6.350134015E-1
1.330294688E2,2.502249181E-1,4.793992937E-1,3.691671193E-1
1.331294688E2,9.365989566E-1,4.798822701E-1,1.389601827E-1
1.332294688E2,4.121841490E-2,2.561370432E-1,-2.189488858E-1
1.333294688E2,-7.625489831E-1,4.456584901E-2,-2.935417295E-1
1.334294688E2,1.227892414E-1,-3.061653972E-1,-1.228725091E-1
1.335294688E2,-1.169936806E-1,3.563435972E-1,2.895614505E-1
1.336294688E2,-4.806483388E-1,4.996171594E-2,1.206075773E-1
1.337294688E2,1.499517560E-1,-1.804950237E-1,-1.799454391E-1
1.338294688E2,-2.894448675E-2,1.373114437E-1,-2.764048576E-1
1.339294688E2,-5.653667450E-1,3.399561644E-1,-3.012191653E-1
1.340294688E2,-5.613198876E-1,-4.458250478E-2,-1.702861786E-1
1.341294688E2,1.390434504E-1,-3.442528546E-1,-5.181029812E-2
1.342294688E2,5.190023184E-1,-1.128468588E-1,1.154115573E-1
1.343294688E2,-1.729508042E-1,5.106087402E-2,4.399295449E-1
1.344294688E2,-3.038005233E-1,-4.288880229E-1,1.820271760E-1
1.345294688E2,-1.963495463E-2,2.433135547E-2,1.678213924E-1
1.346294688E2,-3.142591715E-1,2.348866761E-1,-1.010891981E-2
1.347294688E2,-8.926492929E-2,2.464111745E-1,1.697365940E-1
1.348294688E2,-4.115179926E-2,-6.899712980E-2,-7.021286339E-2
1.349294688E2,1.002565101E-1,-4.276889265E-1,-3.877528608E-1
1.350294688E2,4.110183716E-1,2.133198678E-1,-2.255771458E-1
1.351294688E2,7.336044908E-1,4.490891993E-1,1.410086155E-1
1.352294688E2,-3.279154003E-1,-1.645572335E-1,5.169205666E-1
1.353294688E2,7.919764519E-1,-4.805650711E-1,3.520968556E-1
1.354294688E2,4.607635736E-1,-1.134463996E-1,-1.569797099E-1
1.355294688E2,-8.197051883E-1,8.866538852E-2,6.278522313E-2
1.356294688E2,5.030811429E-1,-3.736636639E-1,9.519372135E-2
1.357294688E2,6.519004703E-1,1.665390469E-2,6.471874118E-1
1.358294688E2,6.378112435E-1,1.887553632E-1,7.769546509E-1
1.359294688E2,-5.673152804E-1,1.433235109E-1,-3.955968618E-1
1.360294688E2,-2.894781828E-1,2.065583766E-1,-7.457285523E-1
1.361294688E2,-4.769845009E-1,3.278487623E-1,-3.051161766E-1
1.362294688E2,7.816843390E-1,-5.489126965E-2,-2.315558940E-1
1.363294688E2,5.212005973E-1,1.467209030E-2,1.249209419E-1
1.364294688E2,1.603937596E-1,-2.242781371E-1,1.915865242E-1
1.365294688E2,-1.338807344E-1,2.569697425E-2,3.305133879E-1
1.366294688E2,2.719582617E-2,-9.239586443E-2,3.040336967E-1
1.367294688E2,7.100892067E-1,7.156182826E-2,1.664557755E-1
1.368294688E2,6.174935102E-1,3.976452947E-1,7.009628415E-2
1.369294688E2,-1.855411530E-1,-4.409953952E-2,-1.292176545E-1
1.370294688E2,3.656531274E-1,-2.373847663E-1,1.548480093E-1
1.371294688E2,-3.467343003E-2,2.188156545E-1,1.665390446E-3
1.372294688E2,-5.410520434E-1,1.195750386E-1,-2.577857971E-1
1.373294688E2,3.445859551E-1,3.049496412E-1,-3.061487377E-1
1.374294688E2,-7.708593011E-1,1.469540596E-1,-5.644008517E-2
1.375294688E2,-1.464377791E-1,-1.618593037E-1,1.331646293E-1
1.376294688E2,1.530327350E-1,8.343606442E-2,2.105220109E-1
1.377294688E2,-3.936483562E-1,2.068248391E-1,1.276188791E-1
1.378294688E2,5.187191963E-1,5.752258748E-2,-3.773608208E-1
1.379294688E2,1.170353174E0,3.056657612E-1,-2.618826628E-1
1.380294688E2,9.079209566E-1,7.847320288E-2,1.363788247E-1
1.381294688E2,2.056257576E-1,-1.078173816E-1,1.127635911E-1
1.382294688E2,-3.411219418E-1,2.749226689E-1,2.055258453E-1
1.383294688E2,-6.611933112E-1,-5.056125671E-2,2.145022899E-2
1.384294688E2,-3.408388197E-1,-1.483862847E-1,9.719219059E-2
1.385294688E2,-2.627653182E-1,1.289844960E-1,4.839624837E-2
1.386294688E2,-7.858644724E-1,1.146787852E-1,-3.170737028E-1
1.387294688E2,-2.124039084E-1,2.472605258E-1,-8.010361791E-1
1.388294688E2,-1.167605296E-1,-1.834261119E-1,-4.212272167E-1
1.389294688E2,9.892419912E-3,-3.425708115E-1,2.339540571E-1
1.390294688E2,1.210239232E-1,-8.893185295E-3,5.051129460E-1
1.391294688E2,-2.407821566E-1,2.476768792E-1,2.074243873E-1
1.392294688E2,5.121741891E-1,3.049330115E-1,-9.572664648E-2
1.393294688E2,1.212570816E-1,-1.647737324E-1,-3.567599356E-1
1.394294688E2,-5.351399183E-1,-5.056125671E-2,-2.279586494E-1
1.395294688E2,1.169104129E-1,-2.796190605E-2,-1.990641207E-1
1.396294688E2,2.694601715E-1,1.055191383E-1,-1.290511042E-1
1.397294688E2,-1.357126683E-1,2.104553878E-1,-1.068181470E-1
1.398294688E2,4.771343619E-2,-3.551778197E-1,-2.259435207E-1
1.399294688E2,2.265264094E-1,-8.706661314E-2,-2.186990827E-1
1.400294688E2,-5.810547248E-2,6.037040353E-1,-3.058489561E-1
1.401294688E2,7.065252662E-1,1.451887488E-1,-7.452955246E-1
1.402294688E2,6.922861934E-1,2.002298981E-1,-7.794526815E-1
1.403294688E2,3.345269859E-1,1.661393493E-1,-4.886422157E-1
1.404294688E2,-1.688689351E0,-2.710589468E-1,-5.054460168E-1
1.405294688E2,-7.918265462E-1,-5.352398753E-1,-3.236186802E-1
1.406294688E2,-4.672586024E-1,-3.881025910E-1,4.016921669E-2
1.407294688E2,9.760020971E-1,-1.442394704E-1,1.253539473E-1
1.408294688E2,-4.689073563E-1,-1.234220862E-1,4.613964260E-1
1.409294688E2,-3.094295561E-1,-7.547549903E-2,2.725911140E-1
1.410294688E2,1.534490824E0,4.235421121E-1,3.600574136E-1
1.411294688E2,3.239350915E-1,4.685076475E-1,2.444793284E-2
1.412294688E2,-6.652568579E-1,-3.234688044E-1,-4.589649737E-1
1.413294688E2,-1.693369001E-1,-9.697568417E-2,-2.973554730E-1
1.414294688E2,1.256703585E-1,-1.550645083E-1,-5.254307017E-2
1.415294688E2,-8.238853216E-1,-7.124540210E-1,5.026481748E-1
1.416294688E2,-3.914167285E-1,-1.486527473E-1,6.852248907E-1
1.417294688E2,-6.806284189E-1,1.488859057E-1,9.619295597E-2
1.418294688E2,-4.915899634E-1,-3.271826208E-1,-8.213872313E-1
1.419294688E2,3.691171408E-1,-7.188991308E-1,-3.303135335E-1
1.420294688E2,-7.164343596E-1,-5.031644106E-1,9.240252376E-1
1.421294688E2,-1.150268555E0,-1.087366700E0,1.839423776E0
1.422294688E2,-8.188558221E-1,-2.767046392E-1,3.040086985E0
1.423294688E2,-1.210505724E0,-9.074712545E-2,8.066152334E-1
1.424294688E2,1.491024137E0,1.218915939E0,-6.355463266E-1
1.425294688E2,7.194820046E-1,6.423743963E-1,-2.688439786E-1
1.426294688E2,-2.056024551E0,1.047530584E-2,2.727243602E-1
1.427294688E2,-5.256971717E-1,-3.796590567E-1,4.345003664E-1
1.428294688E2,-1.806948632E-1,2.370017171E-1,2.143524140E-1
1.429294688E2,9.742534161E-1,2.652134299E-1,7.763383985E-1
1.430294688E2,-8.392235637E-1,-5.894150138E-1,7.676450610E-1
1.431294688E2,-4.556008875E-1,-6.631585211E-2,1.126536727E0
1.432294688E2,-2.629818022E-1,1.468874365E-1,6.924859881E-1
1.433294688E2,-5.182029009E-1,6.312162876E-1,-5.748927966E-2
1.434294688E2,-8.436868340E-2,4.835627675E-1,-3.478667736E-1
1.435294688E2,-3.841889203E-1,5.075277686E-1,-3.301969767E-1
1.436294688E2,-3.098126054E-1,7.334379852E-2,-4.866271019E-1
1.437294688E2,-8.240685463E-1,-5.470308065E-1,3.769111633E-1
1.438294688E2,1.536822319E-1,-6.128637120E-3,1.168970942E0
1.439294688E2,-3.443527818E-1,-1.542318165E-1,1.123955369E0
1.440294688E2,8.955137730E-1,-1.138127819E-1,1.114429355E0
1.441294688E2,8.408223391E-1,1.298138618E0,4.742199481E-1
1.442294688E2,5.602207184E-1,1.634147763E0,-1.606585503E0
1.443294688E2,-1.516321421E0,6.688874364E-1,-2.158712387E0
1.444294688E2,-4.421278536E-1,5.813544989E-1,-9.846454859E-1
1.445294688E2,1.536988914E-1,5.043801665E-1,-1.075642347E0
1.446294688E2,-2.629818022E-1,3.179230541E-2,-1.312311053E0
1.447294688E2,6.180596948E-1,-2.985545397E-1,-5.973089337E-1
1.448294688E2,2.132532448E-1,-5.877496004E-1,1.006562039E-1
1.449294688E2,2.751724720E-1,-2.936083376E-1,-3.756454885E-1
1.450294688E2,3.770444095E-1,3.833062649E-1,-6.109651327E-1
1.451294688E2,-1.102655008E-1,1.195916906E-1,-7.707593441E-1
1.452294688E2,-7.877296768E-3,9.204613417E-2,-8.133100867E-1
1.453294688E2,3.462679982E-1,1.087166891E-1,-7.573529482E-1
1.454294688E2,8.513475955E-2,-1.134463996E-1,-4.715886116E-1
1.455294688E2,2.326883525E-1,-2.236619443E-1,-4.062220454E-1
1.456294688E2,5.572396517E-2,-3.593246639E-1,-5.993906856E-1
1.457294688E2,-4.844787419E-1,-4.123340249E-1,-4.784500301E-1
1.458294688E2,2.434967458E-1,-2.198315412E-1,-1.179596111E-1
1.459294688E2,5.848351717E-1,-8.517972827E-1,-9.192955494E-2
1.460294688E2,-1.754155755E-1,-4.925892055E-1,2.913767099E-1
1.461294688E2,5.985413492E-2,-2.560204864E-1,2.870966792E-1
1.462294688E2,1.722013801E-1,-7.574695349E-1,-2.038437873E-2
1.463294688E2,6.717019677E-1,-3.144257143E-2,1.204743460E-1
1.464294688E2,9.399630427E-1,-3.404058218E-1,3.832729757E-1
1.465294688E2,3.723313510E-1,-5.409188196E-2,4.864605665E-1
1.466294688E2,-9.051064253E-1,8.077143878E-2,-1.074843034E-1
1.467294688E2,2.378177643E-1,-1.838091463E-1,5.284284055E-2
1.468294688E2,4.879594222E-2,-1.284848750E-1,5.459982753E-1
1.469294688E2,-2.796024084E-1,2.321720868E-1,2.418480068E-1
1.470294688E2,-5.701464415E-1,5.370717645E-1,6.248545274E-2
1.471294688E2,1.655564606E-1,2.801686525E-1,-4.293043613E-1
1.472294688E2,2.033441812E-1,2.010126263E-1,2.959398925E-2
1.473294688E2,1.580938578E0,1.709356755E-1,-2.582521141E-1
1.474294688E2,2.449789345E-1,-1.826433688E-1,-2.481598407E-1
1.475294688E2,-9.507048130E-1,2.181661576E-1,5.112748966E-2
1.476294688E2,-1.545815468E-1,-3.373414874E-1,2.485428751E-1
1.477294688E2,-4.166140854E-1,8.528464288E-2,1.107984260E-1
1.478294688E2,9.492725949E-4,-1.535323411E-1,-3.791095018E-1
1.479294688E2,7.319391519E-2,3.772276044E-1,-2.592846453E-1
1.480294688E2,5.629019812E-3,3.021018207E-1,-4.382808208E-1
1.481294688E2,4.591481388E-2,5.545750260E-3,-2.063585371E-1
1.482294688E2,1.316990852E-1,-1.380608696E-2,-7.379345596E-2
1.483294688E2,-7.687442750E-2,-8.714988083E-2,6.796458364E-2
1.484294688E2,-3.460681438E-2,1.407254934E-1,-6.463380158E-2
1.485294688E2,1.665057391E-1,1.551311165E-1,-2.384839207E-1
1.486294688E2,-1.475869119E-1,1.228891611E-1,-8.601741493E-2
1.487294688E2,-2.736403048E-1,8.555110544E-2,-3.028179407E-1
1.488294688E2,4.756688178E-1,1.853079945E-1,-4.072878957E-1
1.489294688E2,7.795193195E-1,-1.615928411E-1,-1.844753027E-1
1.490294688E2,1.726010740E-1,-3.449689746E-1,2.133365162E-2
1.491294688E2,-4.603305757E-1,-1.927689463E-1,1.027379408E-1
1.492294688E2,4.945377111E-1,-1.942677945E-1,3.673851490E-2
1.493294688E2,-3.835560679E-1,-3.699165285E-1,-4.556508362E-2
1.494294688E2,-4.750692844E-1,-2.451454848E-2,3.493989259E-2
1.495294688E2,-6.293510646E-2,2.183826566E-1,1.069180667E-2
1.496294688E2,-7.717419416E-2,5.420846120E-2,-2.638145089E-1
1.497294688E2,7.921096683E-1,-2.166006863E-1,-3.462679982E-1
1.498294688E2,2.506412566E-1,-1.461047083E-1,-2.441462502E-2
1.499294688E2,4.379976913E-2,-5.016156286E-2,-2.682944015E-2
1.500294688E2,-2.654299438E-1,-1.052526757E-1,1.460547447E-1
1.501294688E2,-3.788763285E-2,-2.826667130E-1,6.607936621E-1
1.502294688E2,1.495520677E-2,-3.916998580E-2,5.506280661E-1
1.503294688E2,-5.529096350E-3,8.959800936E-3,4.580989480E-1
1.504294688E2,4.096860439E-2,1.128468588E-1,1.480199099E-1
1.505294688E2,1.533658057E-1,2.112381309E-1,-3.305800259E-2
1.506294688E2,-9.759188443E-2,1.825434566E-1,-1.645239294E-1
1.507294688E2,2.389335781E-1,-3.868702054E-2,-3.617228270E-1
1.508294688E2,-1.377611011E-1,7.276090980E-2,-2.775040269E-1
1.509294688E2,-3.480166495E-1,-1.377444416E-1,1.193918437E-1
1.510294688E2,5.807216465E-2,-4.405124485E-1,3.073311448E-1
1.511294688E2,-1.628085673E-1,-1.073011085E-1,3.102122843E-1
1.512294688E2,-4.785499573E-1,3.667189926E-2,5.200681686E-1
1.513294688E2,4.758353829E-1,-2.433801591E-1,3.546282351E-1
1.514294688E2,-3.971123695E-1,3.570763767E-1,-8.227028884E-3
1.515294688E2,5.832197517E-2,3.540120423E-1,2.441462502E-2
1.516294688E2,-9.692572989E-3,-2.391167581E-1,2.560204864E-1
1.517294688E2,-1.585451812E-1,9.979020059E-2,1.922526807E-1
1.518294688E2,-4.363822639E-1,-6.894716527E-3,-4.700064957E-1
1.519294688E2,4.023583531E-1,1.473370939E-1,-5.055959225E-1
1.520294688E2,1.056357175E-1,1.586784124E-1,-3.861707449E-1
1.521294688E2,-1.854745448E-1,1.904374063E-1,-3.625222147E-1
1.522294688E2,-2.931586802E-1,4.246745724E-3,-2.577524781E-1
1.523294688E2,-2.834827602E-1,7.755723596E-2,-4.708058760E-2
1.524294688E2,-1.662892401E-1,2.751225047E-2,-6.761485338E-2
1.525294688E2,1.700696796E-1,-2.371849120E-1,9.459418058E-2
1.526294688E2,2.172335386E-1,-1.537654996E-1,3.695334792E-1
1.527294688E2,-1.204243824E-1,3.190888092E-2,2.605003715E-1
1.528294688E2,-3.459682167E-1,-3.130934201E-3,1.723012924E-1
1.529294688E2,-2.153349854E-2,1.230223924E-1,2.128368989E-2
1.530294688E2,-1.388269514E-1,1.794458181E-1,-6.428407133E-2
1.531294688E2,-1.067015678E-1,1.837425381E-1,-2.587184012E-1
1.532294688E2,7.156349421E-1,1.103654280E-1,-6.317825317E-1
1.533294688E2,1.562136263E-1,1.512507647E-1,-7.433969975E-1
1.534294688E2,-2.726743817E-1,-1.078173816E-1,-3.674850762E-1
1.535294688E2,3.427373618E-2,-1.839423776E-1,1.658229232E-1
1.536294688E2,-1.406755298E-1,-1.945675761E-1,1.400260329E-1
1.537294688E2,-6.393434107E-2,-6.696534902E-2,7.624157518E-2
1.538294688E2,-2.717251182E-1,-1.960164681E-2,5.331414342E-1
1.539294688E2,-3.125938028E-2,-1.497519165E-1,4.449257255E-1
1.540294688E2,1.522499919E-1,1.510509104E-1,6.754823774E-2
1.541294688E2,1.478700191E-1,4.172802269E-1,-5.574894547E-1
1.542294688E2,-1.887053996E-1,1.143290550E-1,-5.890985727E-1
1.543294688E2,-3.004031479E-1,-6.628254056E-2,-1.100989655E-1
1.544294688E2,3.368918300E-1,-3.113280833E-1,2.140026726E-2
1.545294688E2,3.942478895E-1,-1.247377470E-1,3.826068044E-1
1.546294688E2,8.804919571E-2,-3.051161766E-1,4.313694537E-1
1.547294688E2,-2.377178371E-1,1.124638170E-1,-3.707991838E-1
1.548294688E2,-2.962063551E-1,-1.896713227E-1,-9.064887166E-1
1.549294688E2,-3.554609418E-1,-5.119910240E-1,3.868202567E-1
1.550294688E2,7.061588764E-1,-2.656964064E-1,1.285514951E0
1.551294688E2,-3.561937213E-1,-1.956833899E-2,7.494423985E-1
1.552294688E2,-2.199314684E-1,-8.516807109E-2,3.746961951E-1
1.553294688E2,7.672287226E-1,3.084469736E-1,1.457050145E-1
1.554294688E2,-1.368950959E-2,-2.706259489E-2,-1.637411863E-1
1.555294688E2,-1.588449478E-1,1.222063527E-1,-1.318273187E0
1.556294688E2,-1.738334596E-1,3.935317695E-2,1.437231991E-2
1.557294688E2,-5.297273993E-1,-4.911902547E-1,8.543286920E-1
1.558294688E2,-5.885156989E-1,3.318290412E-1,3.969458342E-1
1.559294688E2,1.735719919E0,3.560105264E-1,1.700197160E-1
1.560294688E2,-5.936950445E-1,-9.927392751E-2,7.590349913E-1
1.561294688E2,-7.047765851E-1,3.850382864E-1,-3.432369605E-2
1.562294688E2,4.688240886E-1,2.189322263E-1,-5.308765173E-1
1.563294688E2,9.715222120E-1,4.979017973E-1,-4.846952558E-1
1.564294688E2,-8.788265288E-2,1.296006888E-1,-5.270294547E-1
1.565294688E2,-1.629817724E0,2.128368989E-2,1.792293191E-1
1.566294688E2,2.873631418E-1,-1.721014529E-1,-4.063552618E-2
1.567294688E2,1.367618591E-1,2.720748484E-1,5.815377235E-1
1.568294688E2,1.025397539E0,-1.174100265E-1,4.824136496E-1
1.569294688E2,2.750892043E-1,7.750727236E-2,-1.870400012E-1
1.570294688E2,-6.571297646E-1,-2.557873130E-1,-4.704727978E-2
1.571294688E2,-1.032625318E0,1.495520622E-1,-9.406125546E-2
1.572294688E2,-5.745097399E-1,-2.614996135E-1,-1.181611180E0
1.573294688E2,-3.292477131E-2,-3.714820147E-1,-4.080539644E-1
1.574294688E2,3.086634576E-1,-2.904274464E-1,3.306466341E-1
1.575294688E2,-4.658596814E-1,-1.153782532E-1,6.729010344E-1
1.576294688E2,3.104287982E-1,-4.090032578E-1,1.295840293E-1
1.577294688E2,-3.161077797E-1,-3.003864884E-1,1.845252700E-2
1.578294688E2,6.587784886E-1,-6.243382096E-1,3.084969223E-1
1.579294688E2,-6.079174876E-1,4.986179173E-1,-1.146238327E0
1.580294688E2,2.971223295E-1,1.906539053E-1,7.282419205E-1
1.581294688E2,2.090931177E0,2.019286007E-1,6.614598036E-1
1.582294688E2,1.151700735E0,-3.830231428E-1,5.933952928E-1
1.583294688E2,1.864404678E-1,-3.890352324E-2,-2.159678340E-1
1.584294688E2,1.341188908E0,-6.050363556E-2,-7.467777729E-1
1.585294688E2,-5.679481030E-1,2.902609110E-1,-4.221098721E-1
1.586294688E2,-9.842957258E-1,2.360857576E-1,-1.493189037E-1
1.587294688E2,2.802685499E-1,-4.230091870E-1,1.612097956E-2
1.588294688E2,-4.958033860E-1,-8.250344396E-1,1.804117560E-1
1.589294688E2,4.796990752E-1,-1.975153089E-1,3.902509511E-1
1.590294688E2,3.891351521E-1,-8.650038391E-2,-8.575095236E-2
1.591294688E2,2.356694043E-1,1.712854058E-1,-9.099693596E-2
1.592294688E2,-9.217270017E-1,-3.240849823E-2,-7.217469215E-1
1.593294688E2,-4.662926793E-1,-5.380710363E-1,2.298738509E-1
1.594294688E2,-4.017587900E-1,-3.177565038E-1,7.508579493E-1
1.595294688E2,-9.017589688E-1,2.106052786E-1,3.513640761E-1
1.596294688E2,-3.217534423E-1,3.815409541E-2,-1.636412740E-1
1.597294688E2,5.020152926E-1,-4.439598024E-1,-1.163608357E-1
1.598294688E2,5.121741891E-1,-9.442763776E-2,-5.402526855E-1
1.599294688E2,-2.339873612E-1,-3.172901869E-1,-3.892017528E-2
1.600294688E2,7.283085585E-1,2.204477340E-1,4.230591357E-1
1.601294688E2,-3.317624331E-1,-1.065017208E-1,5.456985235E-1
1.602294688E2,3.197549842E-3,3.365920782E-1,-2.979883254E-1
1.603294688E2,6.253541112E-1,1.018719375E-1,-6.442063451E-1
1.604294688E2,7.706261277E-1,-1.821604073E-1,-4.469075501E-1
1.605294688E2,-1.798788309E-1,1.103487760E-1,2.848816812E-1
1.606294688E2,1.273041129E0,1.856077760E-1,1.864571124E-1
1.607294688E2,6.359460354E-1,-2.085568458E-1,4.337842464E-1
1.608294688E2,2.186491191E-1,-5.958101153E-1,-6.035375223E-2
1.609294688E2,-1.113979667E-1,3.144590259E-1,-1.851081550E-1
1.610294688E2,-2.000467032E-1,8.474172950E-1,1.110149324E-1
1.611294688E2,3.202046156E-1,7.272760272E-1,-6.898047030E-2
1.612294688E2,7.009628415E-1,1.223728955E-1,1.113813147E-1
1.613294688E2,7.661795616E-1,-3.797256947E-1,-2.324718535E-1
1.614294688E2,-3.831897080E-1,-1.822936386E-1,-8.858212084E-2
1.615294688E2,-2.805350125E-1,1.225727424E-2,1.332312357E-2
1.616294688E2,-1.965660453E-1,-2.181161940E-1,-1.197748855E-1
1.617294688E2,1.495520622E-1,-1.555807739E-1,6.743165851E-2
1.618294688E2,-9.696569443E-1,1.818439811E-1,7.993874606E-4
1.619294688E2,-1.103720903E0,-2.794525214E-2,3.798755631E-2
1.620294688E2,5.042136312E-1,-1.315824986E-1,-1.148619801E-1
1.621294688E2,1.876695275E0,-7.870635390E-2,-3.626554310E-1
1.622294688E2,-1.382107586E-1,-2.876462340E-1,-7.592514902E-2
1.623294688E2,-4.874597862E-2,-3.826401234E-1,4.463746250E-1
1.624294688E2,-5.335910916E-1,-7.927259058E-2,3.981948495E-1
1.625294688E2,3.354595900E-1,2.075243145E-1,1.144123264E-2
1.626294688E2,1.000583291E0,2.508077919E-1,6.786466390E-2
1.627294688E2,-3.612231836E-2,1.236385927E-1,-1.083003432E-1
1.628294688E2,-8.215870857E-1,2.165007591E-1,-6.335145235E-2
1.629294688E2,-6.240384579E-1,-6.764816493E-2,-1.609100252E-1
1.630294688E2,-3.898679093E-2,-6.466711313E-2,8.042170852E-2
1.631294688E2,-1.696866304E-1,-6.548315287E-2,1.713020653E-1
1.632294688E2,-6.486862302E-1,-1.445225924E-1,-6.223564222E-2
1.633294688E2,2.106219381E-1,-1.652400494E-1,2.727909572E-2
1.634294688E2,2.617993765E-2,9.627622366E-2,2.085235417E-1
1.635294688E2,2.653799653E-1,-3.902009875E-2,-2.671286277E-2
1.636294688E2,4.802320004E-1,1.470373273E-1,1.920028627E-1
1.637294688E2,1.738501191E-1,1.276022196E-1,-3.725478426E-2
1.638294688E2,-8.306967616E-1,3.989776075E-1,1.837092191E-1
1.639294688E2,1.313993037E-1,1.437232047E-1,-4.837959409E-1
1.640294688E2,-4.308531582E-1,3.139927089E-1,-2.823836207E-1
1.641294688E2,3.620891869E-1,-3.867036849E-2,-2.586351335E-1
1.642294688E2,-7.978386283E-1,-2.351031750E-1,1.079506129E-1
1.643294688E2,-1.085251689E0,-2.101556212E-1,3.183893561E-1
1.644294688E2,-1.076758265E0,6.669888645E-2,-3.233355582E-1
1.645294688E2,-1.541651934E-1,-2.341539040E-2,-1.592113264E-2
1.646294688E2,2.668954730E-1,4.678081721E-2,1.058355644E-1
1.647294688E2,-5.198849440E-1,7.873966545E-2,3.850715756E-1
1.648294688E2,1.134030938E0,1.208740398E-1,4.551179111E-1
1.649294688E2,-4.741366804E-1,-6.919697672E-2,5.665658414E-2
1.650294688E2,-2.169337571E-1,5.282618478E-2,-5.553744435E-1
1.651294688E2,-5.561571717E-1,1.337974668E-1,-6.846086979E-1
1.652294688E2,6.989477277E-1,-2.710422873E-1,-6.251876056E-2
1.653294688E2,-1.487859786E-1,-3.204377890E-1,4.311529398E-1
1.654294688E2,-5.692970753E-1,-1.762482673E-1,5.062287450E-1
1.655294688E2,7.394333929E-2,2.026114017E-1,5.951606035E-1
1.656294688E2,1.304000735E0,2.253439873E-1,1.765980124E-1
1.657294688E2,2.796190605E-2,4.973022640E-1,-2.178164274E-1
1.658294688E2,-1.124804765E-1,1.395763755E-1,-2.172335386E-1
1.659294688E2,5.057790875E-2,-5.509111658E-2,2.413150854E-2
1.660294688E2,-1.319488883E-1,1.185258403E-1,1.166106388E-1
1.661294688E2,-4.047898054E-1,3.227526695E-2,-4.616462439E-2
1.662294688E2,4.818807244E-1,-1.688705944E-2,-2.235953212E-1
1.663294688E2,1.548313498E-1,-1.533824671E-2,-3.818906844E-1
1.664294688E2,2.997036576E-1,-1.243214011E-1,-9.182962775E-2
1.665294688E2,1.329647750E-1,-1.729508042E-1,2.458282858E-1
1.666294688E2,-4.403958619E-1,-9.874100238E-2,-2.586351335E-2
1.667294688E2,-4.463746250E-1,-2.761050761E-1,9.441098571E-2
1.668294688E2,-6.308498979E-2,-1.906872094E-1,4.041402936E-1
1.669294688E2,9.005765319E-1,1.393931825E-2,3.481998444E-1
1.670294688E2,-1.044199839E-1,3.511808813E-1,-1.661893129E-1
1.671294688E2,-1.215735101E-3,-8.813246340E-2,-3.495154977E-1
1.672294688E2,-3.570597246E-2,-8.326952346E-3,2.062752694E-1
1.673294688E2,1.577624381E-1,-1.354129016E-1,2.076908499E-1
1.674294688E2,-1.928189099E-1,2.131699817E-3,2.531226873E-1
1.675294688E2,4.506879747E-1,-1.060853712E-2,1.290677581E-2
1.676294688E2,-8.070482314E-2,1.508344114E-1,-1.755321585E-2
1.677294688E2,-8.651703596E-2,1.435233504E-1,-7.234456390E-2
1.678294688E2,-2.166839540E-1,9.915734828E-2,-3.553610146E-1
1.679294688E2,-1.181427985E-1,-3.003365099E-1,-4.634281993E-1
1.680294688E2,1.906539053E-1,-3.513973951E-2,1.219398901E-1
1.681294688E2,1.421244293E-1,2.239950188E-2,2.326384038E-1
1.682294688E2,5.419180542E-2,2.947741188E-2,5.904808640E-1
1.683294688E2,-3.055991605E-2,-2.760384679E-1,2.370017171E-1
1.684294688E2,-8.869870007E-2,5.432503670E-2,1.915199100E-3
1.685294688E2,-1.868068576E-1,2.496420406E-2,9.862442315E-2
1.686294688E2,-1.085334942E-1,2.331380099E-1,-1.223562360E-1
1.687294688E2,4.680579901E-1,1.334643960E-1,-8.116779923E-1
1.688294688E2,-1.613097191E-1,1.391766816E-1,-5.501117706E-1
1.689294688E2,1.874563545E-1,-6.271860749E-2,-7.044601720E-3
1.690294688E2,-3.197549656E-2,-2.252607197E-1,4.752025306E-1
1.691294688E2,7.086902857E-1,-2.111048996E-1,6.466377974E-1
1.692294688E2,2.784033418E-1,7.868970186E-2,4.691071808E-1
1.693294688E2,-3.731973469E-1,3.086801171E-1,1.201579198E-1
1.694294688E2,7.668623328E-1,3.914500475E-1,-3.283650279E-1
1.695294688E2,2.993872464E-1,5.162544250E-1,-7.273426652E-1
1.696294688E2,-4.275057465E-2,4.807982221E-2,-6.379777789E-1
1.697294688E2,9.058225155E-1,1.284682155E-1,-4.109351039E-1
1.698294688E2,4.547681808E-1,-3.129934967E-1,2.944410443E-1
1.699294688E2,1.100823134E-1,-4.655932188E-1,5.199682117E-1
1.700294688E2,-6.225229800E-2,7.244448643E-3,4.492390752E-1
1.701294688E2,6.779471636E-1,-1.493855286E-2,5.509111658E-2
1.702294688E2,-5.755256414E-1,3.830398023E-1,-1.168937609E-1
1.703294688E2,4.858277142E-1,1.025380939E-1,-1.268028319E-1
1.704294688E2,6.416083574E-1,1.659728140E-1,-1.981981248E-1
1.705294688E2,2.573361397E-1,-1.151784062E-1,-2.900443971E-1
1.706294688E2,-4.271726683E-2,-3.876695931E-1,-3.006029725E-1
1.707294688E2,5.229325891E-1,-1.694701314E-1,-4.379144311E-1
1.708294688E2,2.840156853E-1,-2.125537843E-1,-4.496554320E-4
1.709294688E2,-6.658231467E-2,-1.322653145E-1,-1.582453996E-1
1.710294688E2,-3.611899018E-1,-6.539988518E-2,-8.343606442E-2
1.711294688E2,-1.410918832E-1,-1.456883550E-1,9.822472930E-2
1.712294688E2,-2.157013714E-1,-2.159345299E-1,4.939048588E-1
1.713294688E2,1.533658057E-1,-1.485028714E-1,7.676284313E-1
1.714294688E2,-4.834628478E-2,2.622656822E-1,2.084735781E-1
1.715294688E2,6.000735164E-1,3.422544003E-1,-4.637779295E-1
1.716294688E2,-3.298305869E-1,2.991374433E-1,-4.595145285E-1
1.717294688E2,5.314261094E-2,6.130302325E-2,-6.056525707E-1
1.718294688E2,2.278420776E-1,-1.389601827E-1,-2.004297376E-1
1.719294688E2,-2.854146063E-1,-4.578158259E-2,-6.534992158E-2
1.720294688E2,6.598943472E-1,-5.968759581E-2,2.742898092E-2
1.721294688E2,9.526033700E-2,5.300937966E-2,-1.190754212E-2
1.722294688E2,2.098391997E-3,7.837327570E-2,1.586617529E-1
1.723294688E2,-2.530227900E-1,1.340639312E-2,2.849982679E-1
1.724294688E2,-3.866204023E-1,4.668089375E-2,-1.803617924E-2
1.725294688E2,1.948506944E-2,1.702861786E-1,-3.947641551E-1
1.726294688E2,-1.981648207E-1,-2.394831553E-2,-5.238319039E-1
1.727294688E2,1.312161088E-1,2.331713140E-1,-3.109617233E-1
1.728294688E2,5.991575122E-1,5.061121657E-2,-3.113947213E-1
1.729294688E2,4.796324670E-2,-1.798122078E-1,-1.542984247E-1
1.730294688E2,-2.290578038E-1,-5.983414650E-1,1.860574186E-1
1.731294688E2,-5.002499819E-1,-3.529961705E-1,5.032809973E-1
1.732294688E2,1.259368211E-1,-3.084636331E-1,8.383076191E-1
1.733294688E2,-9.044735879E-2,8.400229365E-2,7.467111349E-1
1.734294688E2,3.555275500E-1,2.741399407E-1,-3.153916597E-1
1.735294688E2,2.026447207E-1,2.795191407E-1,-7.484098077E-1
1.736294688E2,7.281087339E-2,1.263864785E-1,-5.331248045E-1
1.737294688E2,1.686874032E-1,-3.009860218E-1,-2.051761001E-1
1.738294688E2,5.352398753E-1,-1.600107104E-1,2.314892784E-2
1.739294688E2,5.466477871E-1,2.356527559E-2,2.807348669E-1
1.740294688E2,-7.077909540E-3,-3.456684351E-1,1.650901586E-1
1.741294688E2,-2.158346027E-1,1.060187593E-1,-8.505149186E-2
1.742294688E2,6.668390036E-1,-1.215401962E-1,-4.404957965E-2
1.743294688E2,-2.974387407E-1,1.060687229E-1,6.566801071E-1
1.744294688E2,1.242880896E-1,-4.759686068E-2,7.059090734E-1
1.745294688E2,4.168638885E-1,4.594479203E-1,-9.684245288E-2
1.746294688E2,-8.395066857E-1,6.057857871E-1,-4.368319213E-1
1.747294688E2,-5.617362261E-2,4.984513670E-2,-6.797124743E-1
1.748294688E2,2.299404591E-1,-9.296209365E-2,-3.223196864E-1
1.749294688E2,3.069314659E-1,5.124406517E-2,-5.398196578E-1
1.750294688E2,1.824601740E-1,-2.330380976E-1,-1.074343398E-1
1.751294688E2,2.110549361E-1,-5.861008763E-1,2.733905017E-1
1.752294688E2,-1.942677945E-1,-7.835662365E-2,1.406921893E-1
1.753294688E2,2.126870155E-1,-2.460781038E-1,4.284050465E-1
1.754294688E2,1.622090340E-1,-1.566965878E-1,6.682046056E-1
1.755294688E2,-4.567500055E-1,2.429305166E-1,3.271326423E-1
1.756294688E2,-3.902009875E-2,-1.630916893E-1,3.549446762E-1
1.757294688E2,6.833930016E-1,3.801253736E-1,3.269328177E-1
1.758294688E2,-6.391768903E-2,2.620491982E-1,-1.910202950E-1
1.759294688E2,2.338707894E-1,1.810945570E-1,-7.748562098E-1
1.760294688E2,1.194751143E0,1.436399221E-1,-3.139927089E-1
1.761294688E2,-3.431370556E-1,-2.094561607E-1,1.202911511E-1
1.762294688E2,1.818439811E-1,-1.838591099E-1,1.682044379E-2
1.763294688E2,-4.925225675E-1,-3.042834997E-1,-2.326550521E-2
1.764294688E2,-6.125805974E-1,3.006029874E-2,4.162976444E-1
1.765294688E2,2.387337238E-1,-3.532293066E-2,2.882790864E-1
1.766294688E2,-3.048330843E-1,2.315558940E-1,4.589816183E-2
1.767294688E2,-9.839959741E-1,1.650734991E-1,-2.160511017E-1
1.768294688E2,-2.255271822E-1,2.120042033E-2,-9.356163442E-2
1.769294688E2,-2.412817776E-1,2.331380099E-1,-2.043933719E-1
1.770294688E2,6.804618835E-1,-5.462480709E-3,-3.718983531E-1
1.771294688E2,-3.514140546E-1,-2.420478463E-1,2.306066155E-1
1.772294688E2,-3.125771284E-1,-1.919862181E-1,1.784798950E-1
1.773294688E2,-1.961330324E-1,1.091663465E-1,-9.549348801E-2
1.774294688E2,-2.064085007E-1,-1.442061663E-1,-1.025880501E-2
1.775294688E2,-2.933085859E-1,-1.709689796E-1,2.765713930E-1
1.776294688E2,4.213271439E-1,-7.229460031E-2,4.819307029E-1
1.777294688E2,-7.095562816E-1,-1.427239627E-1,2.217134386E-1
1.778294688E2,1.309163421E-1,2.207641602E-1,1.734837294E-1
1.779294688E2,1.913200617E-1,8.558441699E-2,-2.852813900E-1
1.780294688E2,4.882924855E-1,-4.201780260E-2,-6.170105338E-1
1.781294688E2,3.798089623E-1,-1.216234639E-1,-1.895214431E-2
1.782294688E2,-1.156946793E-1,-4.159645736E-1,2.951405048E-1
1.783294688E2,-5.718950927E-2,-2.879293561E-1,4.941380024E-1
1.784294688E2,-5.412852168E-1,-3.813744290E-3,6.407589912E-1
1.785294688E2,3.155748546E-1,2.757886611E-2,5.585719943E-1
1.786294688E2,2.767046392E-1,2.910935879E-1,-1.641408801E-1
1.787294688E2,2.755888104E-1,1.107484661E-2,-5.693637133E-1
1.788294688E2,-8.130436540E-1,1.455384791E-1,-3.408887684E-1
1.789294688E2,-4.677915275E-1,-2.130367458E-1,1.894215196E-1
1.790294688E2,-8.635049313E-2,1.643240750E-1,-2.514573038E-1
1.791294688E2,7.623491287E-1,8.676684462E-3,-4.793660045E-1
1.792294688E2,-2.611332238E-1,1.853413135E-1,-6.624090672E-1
1.793294688E2,-9.987346828E-2,-5.938782543E-2,-1.250208616E-1
1.794294688E2,2.448790222E-1,-4.275723398E-1,2.356361002E-1
1.795294688E2,-7.377679646E-2,-4.647605121E-1,5.194352865E-1
1.796294688E2,2.334044725E-1,-7.960566320E-3,9.675918519E-2
1.797294688E2,-5.837193727E-1,1.285514981E-1,-2.971889377E-1
1.798294688E2,-1.165939867E-1,-1.384272575E-1,2.127203196E-1
1.799294688E2,2.005130202E-1,-3.716152310E-1,3.268162310E-1
1.800294688E2,-3.902009875E-2,3.765447810E-2,-7.968893647E-2
1.801294688E2,-4.532360137E-1,-1.262366027E-2,-4.229425788E-1
1.802294688E2,-2.741732299E-1,-1.050861366E-2,-1.853246540E-1
1.803294688E2,1.226393580E-1,-7.684111595E-2,1.347634047E-1
1.804294688E2,-4.128502905E-1,-9.914069623E-2,2.233954817E-1
1.805294688E2,1.538820863E-1,2.510576248E-1,1.132132486E-1
1.806294688E2,-6.926359236E-2,3.227526695E-2,1.998468535E-3
1.807294688E2,-1.711022109E-1,2.177997679E-1,-2.156181037E-1
1.808294688E2,1.772142053E-1,4.674750939E-2,-3.528795838E-1
1.809294688E2,3.296807110E-1,-5.703962222E-2,-4.902077019E-1
1.810294688E2,1.772475094E-1,2.990541756E-1,-5.459982753E-1
1.811294688E2,2.438298166E-1,-2.016621381E-1,-1.330313981E-1
1.812294688E2,-1.717850268E-1,-9.952373803E-2,-1.506179124E-1
1.813294688E2,6.407923102E-1,-3.530627862E-2,6.804785877E-2
1.814294688E2,-3.250009418E-1,-1.342804283E-1,-3.249176964E-2
1.815294688E2,-1.180428788E-1,-8.883193135E-2,-1.536156237E-1
1.816294688E2,-1.886887476E-2,-1.805949509E-1,-1.442561299E-1
1.817294688E2,2.759885192E-1,-1.414582729E-1,-5.980417132E-2
1.818294688E2,1.495520677E-2,-1.185758039E-1,3.930321429E-3
1.819294688E2,5.470807850E-2,-1.469707042E-1,4.583154619E-2
1.820294688E2,-1.281851083E-1,-4.803985357E-1,1.074509919E-1
1.821294688E2,-2.774707079E-1,-1.577624381E-1,1.759151965E-1
1.822294688E2,-1.114146262E-1,-4.429938644E-2,1.763814986E-1
1.823294688E2,4.244081080E-1,-3.254172951E-2,1.567465514E-1
1.824294688E2,-5.644841194E-1,-6.604938954E-2,-3.763782606E-2
1.825294688E2,-3.764948249E-1,6.828100886E-4,-9.184628725E-2
1.826294688E2,-1.570796371E-1,1.266696006E-1,-8.640045673E-2
1.827294688E2,5.033309460E-1,6.281852722E-2,-3.470673785E-2
1.828294688E2,-1.048363298E-1,-9.204613417E-2,-1.228225455E-1
1.829294688E2,1.592279822E-1,-1.462879032E-1,3.747128649E-3
1.830294688E2,1.249209419E-1,-1.030876674E-2,1.164441034E-1
1.831294688E2,-7.599176466E-2,-4.606470093E-2,1.180595309E-1
1.832294688E2,-1.228058934E-1,4.065218195E-2,-5.079440773E-3
1.833294688E2,6.528330501E-3,1.384439170E-1,-1.220731251E-2
1.834294688E2,-5.762251094E-2,8.893185109E-2,8.939816058E-2
1.835294688E2,2.699264884E-1,1.691703647E-1,1.753656194E-2
1.836294688E2,2.046931386E-1,1.318989228E-2,-2.431470202E-3
1.837294688E2,3.166573346E-1,-2.294741571E-1,5.602373555E-2
1.838294688E2,-3.895348310E-2,4.829632526E-4,8.513475955E-2
1.839294688E2,-4.901244119E-2,-7.868970186E-2,1.099490821E-1
1.840294688E2,-1.828432232E-1,1.296173483E-1,8.178732544E-2
1.841294688E2,4.222764075E-1,3.642208874E-2,1.067515276E-2
1.842294688E2,-3.825401887E-2,1.706026047E-1,-1.049195975E-2
1.843294688E2,-2.349366397E-1,-6.251876056E-2,-7.472606748E-2
1.844294688E2,-2.359358668E-1,8.999770135E-2,-3.828732669E-2
1.845294688E2,5.697300658E-2,-7.066252083E-2,-1.776971668E-1
1.846294688E2,-2.771875858E-1,-4.808981419E-1,-3.305966556E-1
1.847294688E2,-3.267829120E-1,3.792094067E-2,3.805250823E-1
1.848294688E2,-3.227193654E-1,-2.703428268E-1,5.479134619E-3
1.849294688E2,2.582521141E-1,-3.948640823E-1,-3.880359931E-3
1.850294688E2,-1.369617134E-1,1.111648157E-1,7.515907288E-2
1.851294688E2,-1.915698647E-1,9.149654955E-2,9.855780751E-2
1.852294688E2,-8.513475955E-2,-1.014222763E-2,4.569831491E-2
1.853294688E2,2.498418838E-1,-3.134264797E-2,9.212940186E-2
1.854294688E2,2.766380012E-1,-5.021152273E-2,1.333644688E-1
1.855294688E2,2.257603407E-1,-9.627622366E-2,2.116378248E-1
1.856294688E2,1.386437565E-1,5.199348927E-2,1.775972396E-1
1.857294688E2,-2.204310894E-1,5.825535953E-2,6.584954262E-2
1.858294688E2,-3.335277438E-1,1.053692549E-1,-9.614299238E-2
1.859294688E2,-1.024714783E-1,-2.791194431E-2,-1.948673427E-1
1.860294688E2,-3.382075131E-1,7.882293314E-2,-1.926357150E-1
1.861294688E2,-2.224128991E-1,-1.698698266E-3,-1.770143509E-1
1.862294688E2,-5.031144619E-2,-1.200746559E-2,-8.481834084E-2
1.863294688E2,2.003964335E-1,5.882159248E-2,-7.809016109E-2
1.864294688E2,-2.290578038E-1,-9.008096904E-2,-1.578124017E-1
1.865294688E2,-2.738401592E-1,-1.057522930E-2,-9.457752854E-2
1.866294688E2,-2.105886191E-1,-6.166940928E-2,-2.281584963E-2
1.867294688E2,-3.003198802E-1,9.709226899E-3,1.822936386E-1
1.868294688E2,-1.129800901E-1,-6.401760876E-2,1.198581532E-1
1.869294688E2,1.965160854E-2,4.098526016E-2,3.405723721E-2
1.870294688E2,1.707025170E-1,-3.813744290E-3,-8.048832417E-2
1.871294688E2,-1.986810863E-1,5.096094683E-3,-1.627919227E-1
1.872294688E2,-5.024982691E-1,1.078839973E-1,-1.667555422E-1
1.873294688E2,2.935084105E-1,9.842457622E-2,-2.153849453E-1
1.874294688E2,-1.110815443E-2,1.562136319E-2,-5.912136286E-2
1.875294688E2,-1.657896191E-1,-1.770476550E-1,-1.423908863E-2
1.876294688E2,-2.221630961E-1,-1.576125622E-1,4.121008813E-1
1.877294688E2,-2.338374704E-1,-2.309230417E-1,4.404957891E-1
1.878294688E2,-1.915032566E-1,-8.525133878E-2,-1.851081550E-1
1.879294688E2,-2.440130115E-1,1.651068181E-1,-1.637411863E-1
1.880294688E2,-2.514406443E-1,1.625587642E-1,-3.017687611E-2
1.881294688E2,1.876895130E-2,-2.644473612E-1,-3.239184618E-2
1.882294688E2,-2.674283981E-1,-1.363788247E-1,4.885089993E-1
1.883294688E2,7.943912409E-3,-1.529994309E-1,4.592980444E-1
1.884294688E2,-6.345137954E-2,2.232455909E-1,2.295740843E-1
1.885294688E2,-3.454186320E-1,8.896516263E-2,-6.779804826E-2
1.886294688E2,7.694104221E-3,-2.458116412E-2,-1.193918437E-1
1.887294688E2,1.507178415E-2,2.084902376E-1,5.479134619E-2
1.888294688E2,8.878196776E-2,9.609302878E-2,-9.809150361E-3
1.889294688E2,1.345968544E-1,2.053426392E-2,-4.784666747E-2
1.890294688E2,-5.184360594E-2,-1.079173014E-2,9.109685570E-2
1.891294688E2,-9.855780751E-2,2.744563483E-2,7.227794826E-2
1.892294688E2,-1.086833850E-1,-9.965696931E-2,-4.603139311E-2
1.893294688E2,-1.860574186E-1,2.614662983E-2,1.167771816E-1
1.894294688E2,-6.789796799E-2,3.643874452E-2,2.142524868E-1
1.895294688E2,9.474406391E-2,1.354129016E-1,2.716251910E-1
1.896294688E2,6.047032773E-2,-4.684743285E-2,2.561537027E-1
1.897294688E2,-1.478700191E-1,-3.312461823E-2,1.403257996E-1
1.898294688E2,2.241615579E-2,1.051694080E-1,-1.854911894E-1
1.899294688E2,2.811345756E-1,-2.060254514E-1,-2.264098376E-1
1.900294688E2,-2.107884735E-1,1.052693352E-1,-2.948907018E-1
1.901294688E2,5.400861427E-2,1.947008073E-1,-4.743698239E-1
1.902294688E2,-4.504881427E-2,1.796623319E-1,-5.830032229E-1
1.903294688E2,1.057189852E-1,8.456853032E-2,-4.994505942E-1
1.904294688E2,1.460380852E-1,-1.599441022E-1,-2.375846058E-1
1.905294688E2,2.332379371E-1,-2.641142905E-1,1.616261452E-1
1.906294688E2,2.115045907E-3,-3.004364371E-1,3.656364679E-1
1.907294688E2,-2.028112561E-1,-1.340805888E-1,4.671087265E-1
1.908294688E2,-2.888120115E-1,-2.499751151E-1,3.163742423E-1
1.909294688E2,-2.838324904E-1,5.703962222E-2,2.049429566E-1
1.910294688E2,-3.100624084E-1,1.756154299E-1,-1.468041688E-1
1.911294688E2,-3.608901054E-2,1.286514103E-1,-3.738801777E-1
1.912294688E2,-8.125440031E-2,3.725478426E-2,-2.979383469E-1
1.913294688E2,-5.340907350E-2,4.028579593E-2,-4.201780260E-2
1.914294688E2,1.365620177E-3,-1.433734596E-1,-1.497352570E-1
1.915294688E2,3.981948644E-2,-7.217802107E-2,-1.743830442E-1
1.916294688E2,2.045932263E-1,-4.601473734E-2,-1.093162298E-1
1.917294688E2,3.493323028E-1,-4.786332324E-2,1.871732324E-1
1.918294688E2,2.807515264E-1,-2.332712412E-1,2.752557397E-1
1.919294688E2,2.188156545E-1,-8.245348185E-2,3.644873500E-1
1.920294688E2,-5.082771927E-2,9.186293930E-2,2.582854033E-1
1.921294688E2,2.749226689E-1,4.839624837E-2,8.698334545E-2
1.922294688E2,2.525564730E-1,9.377814084E-2,9.352833033E-2
1.923294688E2,1.951671094E-1,6.413418800E-2,-1.765147299E-1
1.924294688E2,-1.723179519E-1,1.715518683E-1,-2.180662304E-1
1.925294688E2,-1.809446812E-1,-5.554077402E-2,-2.008294314E-1
1.926294688E2,-3.183893561E-1,-2.722913399E-2,-1.884222776E-1
1.927294688E2,-4.914567247E-2,-4.641443118E-2,-1.308996882E-2
1.928294688E2,-2.431636602E-1,-8.030512929E-2,3.202546015E-2
1.929294688E2,-1.379109919E-1,-1.214569286E-1,4.678081721E-2
1.930294688E2,-4.686408862E-2,-8.551780134E-2,1.807781309E-1
1.931294688E2,-8.481834084E-2,-1.053026393E-1,1.718183309E-1
1.932294688E2,1.455218196E-1,1.748660021E-2,9.449425340E-2
1.933294688E2,-3.895848095E-1,1.191753447E-1,1.010725498E-1
1.934294688E2,-7.540888339E-2,-1.216900796E-1,8.585087955E-2
1.935294688E2,-2.404490709E-1,4.413284827E-3,5.194352940E-2
1.936294688E2,-2.615329325E-1,-2.799521387E-2,9.617630392E-2
1.937294688E2,8.212040365E-2,1.658062786E-1,5.928790197E-2
1.938294688E2,-2.951571643E-1,2.052427232E-1,-7.735738903E-2
1.939294688E2,1.036705598E-1,8.513475955E-2,-4.485063255E-1
1.940294688E2,-4.994506016E-2,5.993740261E-2,-5.557574630E-1
1.941294688E2,1.417247299E-2,1.286514103E-1,-1.836093068E-1
1.942294688E2,9.960700572E-2,-2.346035540E-1,2.268095315E-1
1.943294688E2,3.459015861E-2,-1.322653145E-1,2.409819961E-1
1.944294688E2,-8.455187827E-2,-1.505846083E-1,2.729575038E-1
1.945294688E2,1.108317375E-1,-4.846286494E-3,2.053426392E-2
1.946294688E2,-2.947741188E-2,1.018386260E-1,9.447760135E-2
1.947294688E2,7.695769519E-2,-3.130934201E-3,4.611466080E-2
1.948294688E2,2.307065427E-1,6.088667735E-2,1.332645416E-1
1.949294688E2,3.165907413E-2,-1.105819270E-2,4.779670760E-2
1.950294688E2,7.592514902E-2,5.728943273E-2,8.721649647E-2
1.951294688E2,-1.718682982E-2,1.858575828E-2,2.448124113E-3
1.952294688E2,7.875631750E-2,1.352463663E-1,-4.131833836E-2
1.953294688E2,2.596343681E-2,1.131965891E-1,-2.073577642E-1
1.954294688E2,-5.089433491E-2,-2.797855996E-3,-2.696267143E-2
1.955294688E2,-1.388269514E-1,-4.666424170E-2,3.895348310E-2
1.956294688E2,-1.208906919E-1,-2.376512252E-2,1.318656206E-1
1.957294688E2,4.096860439E-2,-8.338610083E-2,1.255537868E-1
1.958294688E2,-1.414249539E-1,9.504383802E-2,8.630053699E-2
1.959294688E2,-1.793958694E-1,-6.536657363E-2,-3.738801554E-2
1.960294688E2,-1.043367162E-1,7.294410467E-2,-1.148120165E-1
1.961294688E2,-3.121607900E-1,1.135796309E-2,-1.068847626E-1
1.962294688E2,-1.654898524E-1,-3.732139990E-2,-3.214203566E-2
1.963294688E2,-1.455717832E-1,-2.259934880E-2,-1.044199839E-1
1.964294688E2,-5.000834465E-1,-2.697932534E-2,-1.140292883E-1
1.965294688E2,-2.242115140E-1,-1.440063119E-1,-1.293841898E-1
1.966294688E2,-9.677583724E-2,1.135796309E-2,-1.308330745E-1
1.967294688E2,-9.692572802E-2,1.224894673E-1,-1.212404296E-1
1.968294688E2,-4.941213429E-1,2.451787889E-1,-1.326650083E-1
1.969294688E2,-7.327718195E-4,-9.154651314E-2,-2.589515746E-1
1.970294688E2,1.031542867E-1,-5.557408184E-2,-2.240449786E-1
1.971294688E2,1.104320407E0,-2.018952817E-1,-9.377814084E-2
1.972294688E2,-1.355960965E-1,-1.700363681E-2,-2.647970803E-3
1.973294688E2,-3.749127090E-1,3.134264797E-2,1.605436392E-2
1.974294688E2,-4.291711375E-2,-5.670654774E-2,-1.603771001E-2
1.975294688E2,1.627586186E-1,-1.685375161E-2,5.002833158E-2
1.976294688E2,7.724080980E-2,-3.685509041E-2,4.726378247E-2
1.977294688E2,4.539854452E-2,4.406623170E-2,-7.930589467E-2
1.978294688E2,1.129134744E-2,9.457752854E-2,-1.934684068E-1
1.979294688E2,-1.559638232E-1,-6.032044441E-2,-1.419079304E-1
1.980294688E2,3.428705931E-1,-1.463878248E-2,6.186925620E-2
1.981294688E2,8.095463365E-2,-1.152616739E-1,1.751491129E-1
1.982294688E2,-1.766979322E-2,-1.150118634E-1,3.153916597E-1
1.983294688E2,2.442128658E-1,-7.885623723E-2,3.206209838E-1
1.984294688E2,-1.743996888E-1,1.673883945E-1,3.400227726E-1
1.985294688E2,4.967693388E-1,1.937182248E-1,1.480532140E-1
