"Time (s)","Linear Acceleration x (m/s^2)","Linear Acceleration y (m/s^2)","Linear Acceleration z (m/s^2)"
4.739072100E-2,-1.398390651E0,2.115229130E0,2.743511200E-1
1.277096110E-1,-1.474361897E0,2.003555059E0,3.824768066E-1
2.277096110E-1,-1.653949261E0,2.025850058E0,3.930740356E-1
3.277096110E-1,-1.639923215E0,2.016179800E0,2.824525833E-1
4.277096110E-1,-1.601985097E0,1.818352699E0,3.905143738E-1
5.277096110E-1,-1.571849942E0,2.075446129E0,2.743539810E-1
6.277096110E-1,-1.599089861E0,2.038410902E0,3.493938446E-1
7.277096110E-1,-1.522987247E0,1.838200450E0,4.235877991E-1
8.277096110E-1,-1.646096110E0,2.103690863E0,2.677288055E-1
9.277096110E-1,-1.544793129E0,1.967697144E0,3.663368225E-1
1.027709611E0,-1.635184765E0,1.991756558E0,3.350286484E-1
1.127709611E0,-1.489480019E0,1.974523544E0,3.158254623E-1
1.227709611E0,-1.571064353E0,1.995256782E0,2.904434204E-1
1.327709611E0,-1.590240121E0,1.964597702E0,3.166713715E-1
1.427709611E0,-1.552477956E0,1.997822642E0,3.406505585E-1
1.527709611E0,-1.491277218E0,1.998300791E0,2.927045822E-1
1.627709611E0,-1.475149155E0,2.047146797E0,3.070125580E-1
1.727709611E0,-1.391230226E0,2.079604387E0,3.299579620E-1
1.827709611E0,-1.811675310E0,1.930717468E0,3.224496841E-1
1.927709611E0,-1.437894702E0,1.963111997E0,2.221336365E-1
2.027709611E0,-1.414936304E0,1.933839798E0,3.250827789E-1
2.127709611E0,-1.470934391E0,1.921193361E0,3.016366959E-1
2.227709611E0,-1.549086332E0,2.042215586E0,2.536926270E-1
2.327709611E0,-1.476292491E0,1.954289675E0,3.349933624E-1
2.427709611E0,-1.540874243E0,2.028351784E0,2.565622330E-1
2.527709611E0,-1.609285712E0,1.912299633E0,2.926578522E-1
2.627709611E0,-1.472083569E0,1.937366128E0,3.244314194E-1
2.727709611E0,-1.419233799E0,1.967833996E0,3.087234497E-1
2.827709611E0,-1.477901578E0,1.951886773E0,2.792625427E-1
2.927709611E0,-1.629088759E0,1.836621165E0,3.657493591E-1
3.027709611E0,-1.457689047E0,1.927590609E0,3.312234879E-1
3.127709611E0,-1.477385044E0,1.879693270E0,3.054676056E-1
3.227709611E0,-1.527381539E0,1.934331059E0,3.002014160E-1
3.327709611E0,-1.458788037E0,1.921470761E0,2.887468338E-1
3.427709611E0,-1.455564499E0,1.984335423E0,2.093334198E-1
3.527709611E0,-1.619935632E0,1.880707026E0,3.179044724E-1
3.627709611E0,-1.475557804E0,1.908664107E0,2.974176407E-1
3.727709611E0,-1.262001514E0,1.798058271E0,3.582735062E-1
3.827709611E0,-1.549902201E0,1.869894147E0,3.252925873E-1
4.267550424E0,-4.649125785E-2,-1.603736281E-1,-1.393680573E-1
4.367550424E0,-2.142215967E-1,-1.452841759E-1,-4.942035675E-2
4.467550424E0,1.376869529E-2,-3.622274995E-1,2.906894684E-2
4.567550424E0,3.201687336E-2,-3.303163052E-1,1.797103882E-2
4.667550424E0,-2.842621207E-1,-9.387083054E-1,9.569921494E-1
4.767550424E0,-6.270557642E-3,-3.764354587E-1,1.161050797E-1
4.867550424E0,-6.441254914E-2,-2.130201310E-1,-9.560966492E-2
4.967550424E0,-1.016192660E-1,-1.022801399E-1,-1.330204010E-1
5.067550424E0,4.772718996E-2,-2.098356038E-1,-1.045303345E-1
5.167550424E0,-5.881939456E-2,-2.154426873E-1,-6.561946869E-2
5.267550424E0,-5.425735191E-2,-2.656887174E-1,-8.954048157E-3
5.367550424E0,2.668878436E-2,-2.974035144E-1,-2.197265625E-3
5.467550424E0,-1.056758314E-2,-2.984709740E-1,3.176689148E-3
5.567550424E0,-5.878755450E-2,-2.732307911E-1,-1.694107056E-2
5.667550424E0,-1.713633537E-5,-2.529107332E-1,3.769874573E-3
5.767550424E0,1.200249493E-1,-4.313997626E-1,-6.813716888E-2
5.867550424E0,-3.879120350E-1,-3.180986047E-1,1.429395676E-1
5.967550424E0,-5.059262738E-3,-1.797354519E-1,8.782100677E-2
6.067550424E0,-7.845447063E-1,-6.389541626E-1,1.070499420E0
6.167550424E0,1.011884689E0,-1.065657616E0,2.563419342E-1
6.267550424E0,8.670605421E-1,-4.309618473E-2,6.819725037E-3
6.367550424E0,-3.366212845E-1,-3.697087169E-1,-3.815526962E-1
6.467550424E0,6.774923801E-1,-3.511154354E-1,3.120870590E-1
6.567550424E0,1.126282930E0,-8.061282635E-1,-3.520498276E-1
6.667550424E0,2.037441969E0,-1.599432230E0,9.361152649E-1
6.767550424E0,2.416589975E0,-7.939103842E-1,-1.059380531E0
6.867550424E0,-1.399010420E0,-1.099628925E0,6.482934952E-1
6.967550424E0,-3.503563881E0,1.465496778E0,8.953485489E-1
7.067550424E0,7.212271690E-1,-4.311597347E-2,6.590328217E-1
7.167550424E0,3.038311005E-1,3.614971638E-1,2.716884613E-1
7.267550424E0,-1.398187637E0,6.272041798E-2,1.089712143E0
7.367550424E0,1.154517555E1,2.385032177E0,-1.074254990E0
7.467550424E0,6.537168503E0,4.579677582E0,9.676313400E-1
7.567550424E0,-2.269346237E0,-6.572918415E0,1.183293343E0
7.667550424E0,-3.892712593E-1,-1.795283914E0,2.377719879E-1
7.767550424E0,1.297407150E0,8.263468742E-2,-7.458400726E-2
7.867550424E0,1.761240959E0,1.200440526E0,-1.193056107E0
7.967550424E0,2.202110052E0,2.021198750E0,8.214597702E-1
8.067550424E0,-3.602476120E-1,1.324002147E0,9.379491806E-1
8.167550424E0,1.298727989E-1,3.631927967E-1,2.566709518E-1
8.267550424E0,1.204242229E0,-2.627925873E-1,1.298385620E0
8.367550424E0,-2.215266228E-1,4.919993877E-2,-2.257471085E-1
8.467550424E0,2.236124516E0,6.605206728E-1,-7.949256897E-2
8.567550424E0,3.401336908E0,-2.522836208E0,1.165650368E0
8.667550424E0,5.290861130E-1,-3.254561424E-1,-3.372774124E-1
8.767550424E0,2.028065681E0,1.261012554E0,9.463272095E-1
8.867550424E0,4.004476070E-1,2.599186897E0,-1.840370655E0
8.967550424E0,1.346257210E0,-9.878370762E-1,7.795829773E-1
9.067550424E0,6.515049934E-1,3.420021534E-1,-8.484926224E-1
9.167550424E0,-1.991388559E0,9.324757457E-1,-9.246387482E-1
9.267550424E0,1.510531545E0,1.344926119E0,-7.131395340E-1
9.367550424E0,-1.349940300E0,1.694566727E0,-1.256066322E0
9.467550424E0,-1.850433111E0,4.253210068E0,-4.102884769E0
9.567550424E0,-4.965977669E-1,2.161105156E0,-4.431524277E0
9.667550424E0,4.007349491E0,-3.534412384E0,8.806686401E-1
9.767550424E0,1.262700796E0,-1.010807395E0,3.288478851E-1
9.867550424E0,1.984186888E0,3.077184916E0,-2.212479591E0
9.967550424E0,6.927727222E0,1.033294052E-1,-1.055431366E1
1.006755042E1,3.696240664E0,5.969409943E-1,-3.005471230E0
1.016755042E1,-1.931501985E0,-2.117854595E0,2.533721924E-2
1.026755042E1,5.259128571E0,-6.794894338E-1,2.251787186E-1
1.036755042E1,1.237422466E0,4.372786522E0,-1.824443340E0
1.046755042E1,-6.738573313E-1,1.547319889E0,-1.800837517E0
1.056755042E1,-1.012642860E1,-8.278138041E-1,1.261816978E0
1.066755042E1,-2.077659607E0,-4.898249149E0,1.554608345E0
1.076755042E1,5.866082907E-1,-5.262017250E-3,6.860456467E-1
1.086755042E1,6.894078255E0,2.519625187E0,-1.821887016E0
1.096755042E1,9.820210338E-1,-1.345583439E0,4.165115356E-1
1.106755042E1,1.753933549E0,-3.497013748E-1,-1.692818642E0
1.116755042E1,-3.160171509E-1,6.076012850E-1,-1.209171295E0
1.126755042E1,2.604140759E0,-4.800346792E-1,-1.417198181E-1
1.136755042E1,-5.370817661E0,1.147778034E0,1.337796211E0
1.146755042E1,-3.185499668E0,1.212921619E0,-2.903171539E0
1.156755042E1,-1.476818919E-1,1.926225662E0,-3.148880005E-1
1.166755042E1,2.960755229E-1,-1.387207985E0,1.489615440E0
1.176755042E1,-2.296319962E0,-1.325129509E0,3.143393517E0
1.186755042E1,-1.433505654E0,-2.929500937E-1,-6.631832123E-1
1.196755042E1,-9.409595728E-1,2.798472643E0,-3.146921158E0
1.206755042E1,4.438496590E0,-4.734171033E-1,2.100448608E-1
1.216755042E1,3.404613972E0,-2.893700123E0,1.559583664E0
1.226755042E1,-6.427819133E-1,-3.058160782E0,3.286175728E0
1.236755042E1,1.903057098E-2,8.055546284E-1,2.106920242E0
1.246755042E1,2.181721210E0,6.296224594E-1,-5.335607529E-1
1.256755042E1,6.196313500E-1,-3.098509014E-1,1.172400475E0
1.266755042E1,8.721733093E-2,4.064760804E-1,-1.325073242E0
1.276755042E1,3.153653741E-1,2.454228401E0,-2.481649876E0
1.286755042E1,1.407267094E0,3.548901796E0,-3.946103573E0
1.296755042E1,9.321718216E-1,-2.954264641E0,2.307290077E0
1.306755042E1,2.111325979E0,2.253553391E0,-3.599456787E0
1.316755042E1,1.554216504E0,-2.944379568E0,1.320467949E0
1.326755042E1,-2.976159811E0,-6.029266715E-1,1.417927742E0
1.336755042E1,2.281262398E0,3.865371644E-1,1.274621010E0
1.346755042E1,1.329447508E0,1.107358098E0,1.640930176E-1
1.356755042E1,-7.440512180E-1,1.874919176E0,-2.042394638E0
1.366755042E1,1.897852421E-1,-4.000146985E-1,-2.133959770E0
1.376755042E1,7.833964825E-1,-4.763164520E0,5.489249229E0
1.386755042E1,-7.825344801E-1,-6.549896598E-1,1.256658554E0
1.396755042E1,-8.086276054E-1,1.631505132E0,1.122947693E0
1.406755042E1,-3.323173046E0,2.596233130E0,-7.859497070E-1
1.416755042E1,-3.023404837E0,-8.729686737E-1,4.165665627E0
1.426755042E1,-7.873418927E-1,-2.281438828E0,2.397296906E0
1.436755042E1,1.424115181E0,7.210075855E-3,1.327786446E0
1.446755042E1,2.408872992E-1,-2.396750927E0,1.707591057E0
1.456755042E1,4.192142785E-1,-1.307423115E0,2.472829819E0
1.466755042E1,3.371937275E0,-6.556976438E-1,-1.173454285E0
1.476755042E1,-1.233252168E0,-2.089866400E0,1.443870544E0
1.486755042E1,7.390713692E-1,-9.142073989E-1,6.377506256E-1
1.496755042E1,-1.626412868E-1,-8.849336207E-2,-3.270502090E-1
1.506755042E1,-6.906169653E-2,-1.825331807E0,1.401890755E0
1.516755042E1,-3.644314766E0,-3.751750946E0,1.934425354E0
1.526755042E1,-8.988052607E-1,5.363546312E-3,-5.500411987E-2
1.536755042E1,-1.987065792E0,4.119228721E-1,-1.605482101E0
1.546755042E1,-1.645790100E0,-2.946592569E0,2.940966606E0
1.556755042E1,-1.350903988E0,-1.604553342E0,2.882315636E0
1.566755042E1,-7.437537909E-1,-1.377971172E0,1.289520264E-1
1.576755042E1,-1.162573457E0,3.166705847E0,-2.773512363E0
1.586755042E1,4.417867661E-1,-4.811065495E-1,-1.283864975E-1
1.596755042E1,-6.350189447E-2,-5.266293049E0,3.701858521E0
1.606755042E1,-2.612450719E-1,8.606330156E-1,-4.387903214E-1
1.616755042E1,-1.461089134E0,-1.092948765E-1,8.432655334E-1
1.626755042E1,1.038972735E0,-7.407531142E-1,-3.542108536E-1
1.636755042E1,-1.871762156E0,-2.700461149E-1,1.604486465E0
1.646755042E1,-1.643645287E0,3.283623695E0,-2.076509953E0
1.656755042E1,2.209927559E0,2.913576841E0,-4.259630680E0
1.666755042E1,2.403669119E0,-4.731838107E-1,-2.713345528E0
1.676755042E1,1.293097377E0,-1.982305050E0,-2.083896160E0
1.686755042E1,6.447663307E-1,4.203687906E-1,-3.156396866E0
1.696755042E1,-2.768595695E0,-5.933657646E0,4.407065392E0
1.706755042E1,9.690635800E-1,8.666095138E-1,2.702638626E0
1.716755042E1,-3.331408501E-1,-2.126362562E0,3.474533081E0
1.726755042E1,3.035207272E0,2.665159702E0,-1.940660000E0
1.736755042E1,-7.580802441E-1,5.181234360E0,-5.023664951E0
1.746755042E1,1.335990191E0,4.779462218E-1,-4.082622528E0
1.756755042E1,-2.307207108E0,6.562358141E-2,-2.463189125E0
1.766755042E1,2.397527456E0,3.378850460E0,-5.325697899E0
1.776755042E1,1.635985136E0,8.357735872E-1,-1.030707359E0
1.786755042E1,3.178401947E0,3.997036934E0,-3.365342140E0
1.796755042E1,1.352886677E0,4.123178482E0,-5.302465916E0
1.806755042E1,-1.567581177E0,-3.833713293E0,2.877587318E0
1.816755042E1,1.486099839E0,-6.289131641E-1,8.442249298E-1
1.826755042E1,3.213840961E0,-1.232985592E1,8.604782104E0
1.836755042E1,-1.408339500E0,7.758539915E-1,7.580213547E-1
1.846755042E1,1.060080051E0,1.236100388E1,-1.106240463E1
1.856755042E1,-2.108227253E0,-2.457147360E0,-1.586723328E-2
1.866755042E1,-3.045685291E0,-1.033621216E1,8.105909348E0
1.876755042E1,-1.086567879E0,9.191183448E-1,-3.130135536E0
1.886755042E1,-8.292541504E-1,1.471206665E0,9.445943832E-1
1.896755042E1,6.338258386E-1,-2.486186504E0,5.413947105E0
1.906755042E1,2.417252779E0,-7.656715393E0,4.913501740E0
1.916755042E1,-4.045622349E-1,-4.346005917E0,4.456514359E0
1.926755042E1,-1.351736546E0,4.492530346E0,-2.340862751E0
1.936755042E1,1.762797832E-1,-3.131482840E0,1.041543961E0
1.946755042E1,-4.635564804E0,-9.591138363E-2,4.683409691E0
1.956755042E1,-5.513145447E0,-5.276247263E-1,1.194876671E0
1.966755042E1,5.115561962E0,1.215139484E1,-1.240781975E1
1.976755042E1,9.145685434E-1,1.190451241E1,-1.520339870E1
1.986755042E1,6.187964916E0,-1.817662430E1,6.037278175E0
1.996755042E1,3.831587076E0,6.741210938E0,-8.828337669E0
2.006755042E1,2.874367714E0,5.632226944E0,-4.670532227E0
2.016755042E1,-7.533434629E-1,-1.200586510E1,1.068181992E-1
2.026755042E1,-8.746357918E0,-2.259652019E-1,2.574872971E0
2.036755042E1,1.816240072E0,8.889587402E0,-1.406069756E0
2.046755042E1,-3.785646200E0,3.233014345E0,-3.585493565E0
2.056755042E1,1.147074223E0,1.926041961E0,-2.691290855E0
2.066755042E1,3.913258076E0,2.314077854E0,-5.712091446E0
2.076755042E1,-1.515277028E0,9.402358055E0,-1.143054485E1
2.086755042E1,1.389117241E0,7.254563570E-1,-3.353872299E0
2.096755042E1,2.343548536E0,-2.833054543E0,3.342473984E0
2.106755042E1,-2.756339073E0,3.802090645E0,-4.757653236E0
2.116755042E1,9.293326139E-1,9.566680908E0,-7.118000031E0
2.126755042E1,5.131621361E-1,2.810162067E0,-3.712478161E0
2.136755042E1,1.038531780E0,1.022221923E0,-4.758075714E0
2.146755042E1,4.503767967E0,-4.392063618E0,3.170797348E0
2.156755042E1,-1.490070820E-1,-1.230340385E1,1.219793224E1
2.166755042E1,-7.521713972E-1,3.287252903E0,-9.674297333E0
2.176755042E1,2.772874355E0,4.804473877E0,-6.520937920E0
2.186755042E1,9.147173762E-1,2.817599535E0,-1.271269798E0
2.196755042E1,1.621100307E-1,-3.780455828E0,4.355622292E0
2.206755042E1,8.818770647E-1,-1.970539570E0,-1.179317474E0
2.216755042E1,1.238141656E0,-7.944750786E0,9.547420502E0
2.226755042E1,-8.763254881E-1,1.030974030E0,-4.072613716E0
2.236755042E1,-3.154641151E0,2.435860157E0,-6.514901638E0
2.246755042E1,1.480808377E0,4.570314884E-1,-2.044143867E1
2.256755042E1,3.315605164E0,1.031380844E1,-6.301561356E0
2.266755042E1,-2.418484449E0,1.732433891E1,-3.840880394E0
2.276755042E1,-2.605340779E-1,-2.842882395E0,-3.580045700E-1
2.286755042E1,7.594893575E-1,5.504909515E0,-6.840823650E0
2.296755042E1,2.826505184E0,-1.195056343E1,1.708005714E1
2.306755042E1,3.733435631E0,-9.431754112E0,2.740131378E0
2.316755042E1,-1.825627923E0,-8.406388760E-1,1.344548225E0
2.326755042E1,1.130865216E0,4.419054031E0,-8.185395241E0
2.336755042E1,-5.504358292E0,-4.688268661E0,9.288131714E0
2.346755042E1,3.317265511E0,-3.094938278E1,1.733339691E1
2.356755042E1,-4.902467251E0,-2.829748154E1,6.100791931E0
2.366755042E1,1.800478697E0,-2.368205261E1,2.282613564E1
2.376755042E1,-4.046905518E0,-5.078169346E0,5.194264412E0
2.386755042E1,1.042111278E0,9.133183956E-1,-1.648219585E0
2.396755042E1,-4.204179049E-1,2.269702673E0,-1.223749161E0
2.406755042E1,1.006619811E0,2.316793203E0,-4.563657284E0
2.416755042E1,-9.121179581E-2,-7.731750011E0,7.711364746E0
2.426755042E1,6.129527092E0,-6.493392467E0,5.982498169E0
2.436755042E1,1.253941536E0,-8.250315666E0,4.215932846E0
2.446755042E1,1.186770439E0,1.575251818E0,-3.779233932E0
2.456755042E1,5.878453255E-1,-9.699639320E0,1.112550926E1
2.466755042E1,2.761950493E0,-8.440503120E0,7.629728317E0
2.476755042E1,-7.737649679E-1,1.194940329E0,2.003107071E0
2.486755042E1,1.393460393E0,-1.796283960E0,-5.901784897E-1
2.496755042E1,-1.575551271E0,-2.916828632E0,-2.690601349E-1
2.506755042E1,-1.771944642E0,-8.933267593E-1,1.987507820E0
2.516755042E1,-1.927597523E0,2.744918346E0,-3.060338974E0
2.526755042E1,2.309629440E0,-5.488404274E0,2.420068741E0
2.536755042E1,-3.711587191E-1,-1.655847788E0,1.210123062E0
2.546755042E1,2.963435650E-1,2.518833876E0,-4.497985840E0
2.556755042E1,1.294545650E0,-4.940267086E0,4.426490784E0
2.566755042E1,-5.471166372E-1,-4.936634064E0,6.218644142E0
2.576755042E1,-5.858210325E-1,-3.022205830E-1,-1.139210701E0
2.586755042E1,-1.768437624E-1,4.394435883E-2,2.619104385E-1
2.596755042E1,-6.326619387E-1,-3.270239353E0,1.860845566E0
2.606755042E1,3.132814169E-1,-4.171528816E-1,-3.872995377E-1
2.616755042E1,8.283110857E-1,3.754522085E0,-8.895085335E0
2.626755042E1,5.962371826E-3,-3.426260710E0,8.220100403E-2
2.636755042E1,1.249042988E0,-2.720689774E-1,1.726347923E0
2.646755042E1,-9.292274714E-1,-5.693542957E0,3.539441109E0
2.656755042E1,2.045938730E0,2.675466537E-1,-1.769081593E0
2.666755042E1,1.262648106E0,3.485676289E0,-5.258937836E0
2.676755042E1,-1.695415020E0,-1.582517862E0,7.135143280E-1
2.686755042E1,-5.095300674E-1,-1.400991797E0,-2.136716843E-1
2.696755042E1,4.009202123E-1,1.007543206E0,5.667333603E-1
2.706755042E1,-1.813611627E0,-2.956665754E-1,-1.738589764E0
2.716755042E1,-2.453380346E0,-4.251178265E0,7.350509644E0
2.726755042E1,5.591463447E-1,-3.978462219E0,2.930521965E0
2.736755042E1,1.765036941E0,-3.001887321E0,2.079615593E0
2.746755042E1,6.197540760E-1,-3.485055685E0,2.920067787E0
2.756755042E1,9.658708572E-1,-2.400547028E0,3.287292480E0
2.766755042E1,1.433998585E0,-2.723757267E0,1.708163261E0
2.776755042E1,7.478922009E-1,-1.244435430E0,9.762601852E-1
2.786755042E1,-9.995342493E-1,-1.329615116E0,1.727352142E-1
2.796755042E1,-1.571620107E0,-4.415913582E0,4.886855125E0
2.806755042E1,-1.582088232E0,1.136302948E-1,7.936601639E-1
2.816755042E1,-2.051910400E0,1.203027964E0,-4.785885334E0
2.826755042E1,-5.723044276E-1,-2.451897383E0,-9.180660248E-1
2.836755042E1,-1.487972856E0,-2.372238159E0,1.304615974E0
2.846755042E1,1.809294462E0,-8.859884739E-2,-1.724430084E0
2.856755042E1,1.644831061E0,1.030302286E0,3.984355927E-2
2.866755042E1,-9.012695551E-1,-6.823778152E-2,-1.772028923E0
2.876755042E1,-4.580542564E0,2.326366901E0,-1.800050735E-1
2.886755042E1,5.046635866E-1,-6.990914822E0,4.378452301E0
2.896755042E1,-4.761996269E-1,1.357025146E0,-3.383058548E0
2.906755042E1,6.497154236E-1,2.220450640E-1,6.019649506E-1
2.916755042E1,2.959808111E-1,-6.664383411E-2,-2.101747036E0
2.926755042E1,-2.221094131E0,5.006978512E-1,6.535148621E-2
2.936755042E1,1.208735228E0,9.567965269E-1,3.007549286E0
2.946755042E1,-2.981639385E0,-4.109713078E0,3.603641510E0
2.956755042E1,-9.990894794E-2,-2.657031059E0,3.810713768E0
2.966755042E1,6.160764694E-1,2.986304760E0,-1.685390472E0
2.976755042E1,-3.675726175E0,-3.385148048E0,6.720810890E0
2.986755042E1,-2.319024563E0,-1.200140953E1,1.047231770E1
2.996755042E1,5.828180313E-1,-4.861113548E0,6.849969864E0
3.006755042E1,4.837909698E0,-6.055172920E0,3.754683495E0
3.016755042E1,1.550927758E0,-1.591916919E0,1.682980537E0
3.026755042E1,3.942507505E-1,-2.252499580E0,-6.558599472E-1
3.036755042E1,3.485122919E0,-4.369737148E0,-2.840909958E-1
3.046755042E1,-6.701070666E-1,-1.244491100E0,-5.598697662E-1
3.056755042E1,-1.526253104E0,3.105380058E0,-5.651093483E0
3.066755042E1,-1.274369121E0,-7.613726616E0,7.418519020E0
3.076755042E1,-3.641588449E0,-5.982056618E0,6.073055267E0
3.086755042E1,-1.451582670E0,2.500671148E-1,-6.684303284E-2
3.096755042E1,-1.815435886E-1,8.423808813E-1,2.925114632E0
3.106755042E1,3.156116009E0,-3.563013554E0,1.660117149E0
3.116755042E1,1.857691050E0,-2.514803886E0,2.043507576E0
3.126755042E1,7.730665207E0,6.119045258E0,-7.605803490E0
3.136755042E1,8.197611570E-1,8.780335188E-1,-2.155907154E0
3.146755042E1,-4.193859100E0,-2.391204357E0,3.115904808E0
3.156755042E1,-1.782649755E-1,-2.537717342E0,-2.926267624E0
3.166755042E1,2.337253571E0,3.734632492E0,-6.302559853E0
3.176755042E1,-9.884497523E-1,1.379136920E0,-2.109006882E0
3.186755042E1,-3.695550919E0,2.062988281E-1,-3.034725189E0
3.196755042E1,-9.980494380E-1,-9.720517397E-1,-3.023610592E0
3.206755042E1,7.402571440E-1,-1.256129503E0,-3.014272690E0
3.216755042E1,-1.455245018E0,-1.801009059E0,9.786882401E-1
3.226755042E1,1.967302799E0,1.050727367E-1,-2.437032700E0
3.236755042E1,3.264292717E0,3.962238312E0,-1.051990318E1
3.246755042E1,1.598410606E0,-9.896571636E-1,-3.850132465E0
3.256755042E1,5.421662331E-2,-4.112876892E0,3.556912422E0
3.266755042E1,3.449054003E0,-2.235511541E0,1.034657478E0
3.276755042E1,-1.008175611E-1,-2.470891237E0,3.341534615E0
3.286755042E1,-7.920870185E-1,1.352384210E0,7.910852432E-1
3.296755042E1,-1.571590662E0,2.095375061E0,-2.568603039E0
3.306755042E1,-7.406885028E-1,-1.976443291E0,6.520881653E-1
3.316755042E1,4.483018398E0,-1.324928188E1,9.659962654E0
3.326755042E1,3.892913342E0,-9.294663668E-1,-1.706058502E0
3.336755042E1,2.292260528E-1,-2.616138935E0,3.983826637E0
3.346755042E1,-2.394451380E0,2.334514141E0,-3.986069679E0
3.356755042E1,-2.512636185E0,6.516680717E0,-7.545012474E0
3.366755042E1,-1.782292366E0,9.849966764E-1,-2.254493237E0
3.376755042E1,-1.573181748E0,-1.315456271E0,4.530105591E-1
3.386755042E1,-1.971452236E0,3.306254864E0,-1.517870903E0
3.396755042E1,-1.027639627E0,3.232870579E0,-3.396942139E0
3.406755042E1,-6.255573630E-1,-2.965095520E0,4.668397903E-1
3.416755042E1,-5.932496786E-1,-1.305088878E0,1.211051941E0
3.426755042E1,-1.970030069E-1,-2.377684593E0,1.654907227E0
3.436755042E1,2.518691421E-1,-2.003986120E0,1.573085785E-1
3.446755042E1,1.871426105E0,-9.029424787E-1,-1.328296661E0
3.456755042E1,1.500777006E0,-2.673552036E-1,-8.293619156E-1
3.466755042E1,-1.509093046E0,8.900938034E-1,-8.791999817E-1
3.476755042E1,-1.257461190E0,-2.513779163E0,2.890540123E0
3.486755042E1,7.464528084E-3,5.686852932E-1,-1.908241272E0
3.496755042E1,-7.182767987E-1,3.118855476E0,-3.136717796E0
3.506755042E1,-2.222554982E-1,-2.577775002E0,4.836730957E-1
3.516755042E1,1.813043237E0,5.078652859E0,-3.584403992E0
3.526755042E1,-1.007095575E-1,-1.044319391E0,-4.882154465E-1
3.536755042E1,-1.914777160E-1,-8.937529564E0,9.425027847E0
3.546755042E1,-6.019105911E-1,2.913749695E0,-3.239082336E0
3.556755042E1,-2.021776915E0,1.284705520E0,-2.654140949E0
3.566755042E1,-9.832054377E-1,-3.813196659E0,3.534523964E0
3.576755042E1,-2.198844194E0,-6.274377346E0,3.947220802E0
3.586755042E1,9.615448713E-1,-4.263723373E0,1.111334801E0
3.596755042E1,6.636302948E0,-6.047115803E0,1.894036293E0
3.606755042E1,1.162712574E0,2.946352959E-1,2.569702148E0
3.616755042E1,2.788523436E0,1.639011502E0,-7.782802582E-1
3.626755042E1,-6.902117133E-1,1.180279493E0,-1.361475945E0
3.636755042E1,-3.990654707E0,1.288903713E0,1.615379333E0
3.646755042E1,4.610167444E-1,-3.050092697E0,4.790359497E0
3.656755042E1,-2.953388453E0,-2.124041080E0,1.339498520E0
3.666755042E1,2.823844433E0,1.838018060E0,-1.390723228E0
3.676755042E1,7.022418976E0,-1.993846774E0,-3.266375065E0
3.686755042E1,4.024641514E0,-3.258044720E0,1.677971840E0
3.696755042E1,1.897825241E0,3.491941214E0,-8.174519539E0
3.706755042E1,4.911036491E-1,3.349377632E0,-1.922403336E0
3.716755042E1,-2.757107019E0,-2.252526760E0,2.245944977E0
3.726755042E1,1.057274818E0,1.764472365E0,-1.844305038E0
3.736755042E1,2.476824760E0,6.160002708E0,-5.537501335E0
3.746755042E1,9.104524851E-1,-7.043022156E0,7.030491829E0
3.756755042E1,-1.988798380E-1,-3.659556866E0,5.193462372E-1
3.766755042E1,2.790964842E-1,-3.174901009E-2,8.920001984E-1
3.776755042E1,2.800688267E0,3.642521858E0,-6.301524162E0
3.786755042E1,1.983231783E0,5.521643639E0,-1.014601421E1
3.796755042E1,1.765905857E0,-1.032580853E1,8.967153549E0
3.806755042E1,2.564360619E0,5.369358063E0,-1.222217846E1
3.816755042E1,-1.981652975E0,-1.386865973E0,1.697419167E0
3.826755042E1,-9.203622818E0,-6.749925613E0,1.569017029E1
3.836755042E1,-6.468670368E-1,-5.341469765E0,-2.320098877E-2
3.846755042E1,-2.893507481E-2,-1.334005475E0,1.936159134E-1
3.856755042E1,1.851355553E0,1.881776810E0,-4.586543560E0
3.866755042E1,-6.128132343E-2,-5.676341057E0,8.182573318E-1
3.876755042E1,-1.462903500E0,-1.691157818E0,4.514895439E0
3.886755042E1,2.327210426E0,1.964659810E0,-4.379160881E0
3.896755042E1,3.491426706E-1,1.267638445E0,-1.213225365E0
3.906755042E1,5.646934509E-1,8.919348717E-1,-1.477972984E0
3.916755042E1,-5.127384663E-1,-1.724704504E-1,-8.946933746E-1
3.926755042E1,-8.327848315E-1,2.377288818E0,-3.334237576E0
3.936755042E1,-1.446401954E0,-8.304420710E-1,-1.686286926E-1
3.946755042E1,-1.010357141E0,-3.070820332E0,5.641841888E-2
3.956755042E1,-2.048530579E0,-1.512233257E0,3.805300713E0
3.966755042E1,-5.574562550E-1,-2.021523714E0,6.366910934E-1
3.976755042E1,1.123023033E-2,-1.826205969E0,2.840846062E0
3.986755042E1,-1.772790909E0,3.693509579E0,-6.244627476E0
3.996755042E1,1.633459687E0,-3.268057346E0,3.735953331E0
4.006755042E1,1.190150499E0,-2.959679842E0,-3.602514267E-1
4.016755042E1,2.192753315E0,-1.724543810E0,4.549858093E0
4.026755042E1,-6.383304000E-1,2.308134079E0,-5.409732342E0
4.036755042E1,5.916222334E-1,-2.887051105E0,3.340343475E0
4.046755042E1,1.799294949E0,-8.328348994E-1,-1.194502831E0
4.056755042E1,4.990553856E-1,2.669609547E0,-5.948468208E0
4.066755042E1,-1.936293244E-1,-3.150511980E-1,3.634176254E-1
4.076755042E1,-2.167960405E0,-5.470794678E0,6.785797119E0
4.086755042E1,2.531999111E0,-4.730280876E0,1.089392662E0
4.096755042E1,1.272019982E0,-8.276927471E-2,-2.789275169E0
4.106755042E1,-2.675884724E0,3.548434973E-1,3.908309937E-1
4.116755042E1,-1.462781668E0,-5.008542061E0,5.024659157E0
4.126755042E1,2.389322996E0,2.000423670E-1,-4.380630016E0
4.136755042E1,-1.499805450E0,-1.378777981E0,2.483568192E-1
4.146755042E1,1.826833248E0,4.755396843E0,-6.874875546E0
4.156755042E1,1.652729511E-2,-4.884716034E0,5.907136917E0
4.166755042E1,-1.870822430E0,3.650999546E0,-2.543502808E0
4.176755042E1,-3.254961014E0,-5.930306435E0,3.603047371E0
4.186755042E1,-2.289329290E0,1.359625340E0,-2.926088810E0
4.196755042E1,1.184198618E0,-1.529256821E0,-4.671440125E-1
4.206755042E1,-3.454267979E-2,-8.979440331E-1,4.450340271E-1
4.216755042E1,1.553619146E0,7.836058140E-1,1.867637634E0
4.226755042E1,1.187695026E0,-4.507755041E-1,-2.923593521E-1
4.236755042E1,-1.288920760E0,-4.645141363E-1,2.226714134E0
4.246755042E1,-1.394490600E0,-8.735753298E-1,3.621344566E0
4.256755042E1,-1.879049778E0,-1.204827547E0,2.111759186E-1
4.266755042E1,5.677029490E-1,-6.542166710E0,3.149323463E0
4.276755042E1,2.479649186E-1,2.142170906E0,-5.283998489E0
4.286755042E1,-1.054910421E0,2.759253979E-2,-2.106189728E-1
4.296755042E1,-3.636125565E0,-6.033207417E0,7.231258392E0
4.306755042E1,-6.193754673E-1,1.510198116E0,-1.355893135E0
4.316755042E1,7.425406575E-1,-2.851512194E0,4.937435150E0
4.326755042E1,8.172354698E-1,-2.295085907E0,5.237874985E-1
4.336755042E1,-3.359990120E0,-2.590648174E0,3.189641953E0
4.346755042E1,-5.677215576E0,-1.631892967E1,2.258087158E1
4.356755042E1,-1.012491703E0,-1.167879677E1,5.264750481E0
4.366755042E1,2.643419504E0,1.013019085E-1,-2.867198467E0
4.376755042E1,1.510031700E0,-4.888861656E0,4.910747528E0
4.386755042E1,1.754374504E0,4.381541252E0,-1.360168457E0
4.396755042E1,2.439464033E-1,2.083440304E0,-2.613208771E0
4.406755042E1,5.122535229E0,6.141624928E0,-1.136695576E1
4.416755042E1,-2.482139170E-1,1.932268381E0,-5.406739235E0
4.426755042E1,9.469556808E-1,3.879249096E-2,2.462291718E-1
4.436755042E1,-1.126372099E0,8.549617529E-1,1.869398117E0
4.446755042E1,2.656218529E0,7.756178379E-1,-6.373008728E0
4.456755042E1,1.858521104E0,-1.618230820E0,-2.574362278E0
4.466755042E1,-1.065570712E0,2.208142281E0,-3.058600426E0
4.476755042E1,7.705450058E-2,-2.499917746E-1,-2.545461178E0
4.486755042E1,8.933395743E-1,2.887105942E0,-4.329491615E0
4.496755042E1,2.568925381E0,2.396045923E-1,-4.038689613E0
4.506755042E1,2.174134970E0,1.444954038E0,-4.254226685E0
4.516755042E1,1.665058732E0,1.705318213E0,-2.090901375E0
4.526755042E1,-3.272300959E-2,4.919190884E0,-5.864047050E0
4.536755042E1,-3.475639820E-1,-2.923611403E-1,-1.561284065E0
4.546755042E1,-3.027428627E0,-6.035844088E-1,2.857890129E0
4.556755042E1,-1.712671161E0,-1.289952874E0,3.946571350E-1
4.566755042E1,-1.279732227E0,-1.312575221E0,-5.411529541E-2
4.576755042E1,1.292978525E-1,1.904865980E0,-2.589496613E0
4.586755042E1,-7.177869678E-1,-2.680375338E0,2.944913864E0
4.596755042E1,6.070683599E-1,-4.411385059E-1,-7.481765747E-1
4.606755042E1,6.634420753E-1,-9.896475673E-1,-3.462333679E-1
4.616755042E1,-2.516314268E0,-2.405031204E0,5.253551483E0
4.626755042E1,-3.877952099E-1,2.300333977E0,-3.315708160E0
4.636755042E1,1.009981394E0,-8.512922525E-1,-4.073715210E-1
4.646755042E1,-1.066100359E0,1.754623413E0,-2.638171196E0
4.656755042E1,-4.040228367E0,-7.944186211E0,5.312419891E0
4.666755042E1,-2.312219858E0,-1.915982246E0,2.984980583E0
4.676755042E1,8.321083784E-1,1.968329310E0,-2.748231888E-1
4.686755042E1,1.408715367E0,7.640504837E-1,-1.487251282E0
4.696755042E1,2.603922606E0,4.550593376E0,-7.256633759E0
4.706755042E1,3.039340496E0,1.625764728E0,-6.347943783E0
4.716755042E1,-1.618774891E0,-3.536158085E0,5.070813179E0
4.726755042E1,1.559207439E0,-3.197313547E0,4.415587425E0
4.736755042E1,-9.938645363E-1,-2.148321152E0,1.328302383E0
4.746755042E1,1.016323328E0,-2.632890701E0,2.166362762E0
4.756755042E1,7.768503428E-1,-2.092040539E0,1.038068771E0
4.766755042E1,2.153382778E0,5.503433704E0,-8.450255394E0
4.776755042E1,-3.306290150E0,-3.682548285E0,4.472348213E0
4.786755042E1,-2.904420495E-1,5.236698389E-1,9.722328186E-1
4.796755042E1,-7.870028615E-1,1.171025038E-1,-2.407306671E0
4.806755042E1,5.707690120E-1,9.053132534E-1,-4.860900402E0
4.816755042E1,-3.883993626E-2,-3.480080605E0,4.838999748E0
4.826755042E1,1.171679258E0,-2.663746357E0,5.424733162E0
4.836755042E1,-1.199489117E0,-5.104815960E-1,2.168531418E-1
4.846755042E1,2.151952744E0,3.513414383E0,-7.409664631E0
4.856755042E1,1.954280496E0,-3.029340982E0,6.663951874E-1
4.866755042E1,-2.352408409E0,-2.359635830E-1,2.802131653E0
4.876755042E1,6.998323202E-1,2.781311035E0,-5.506734848E-1
4.886755042E1,3.148312807E0,-1.331530094E0,-5.335270882E0
4.896755042E1,3.537301302E0,-2.668606281E0,8.362283707E-1
4.906755042E1,-1.093456984E0,-3.963900566E0,3.075923920E0
4.916755042E1,-1.858447075E0,2.220611572E0,-3.044881821E0
4.926755042E1,-1.661493778E-1,-7.470424175E-1,-2.927675247E-1
4.936755042E1,-4.541592598E-1,-3.921704054E0,3.951323509E0
4.946755042E1,-3.027688503E0,-5.438563347E0,3.346205711E0
4.956755042E1,-1.007130742E0,-2.648608446E0,8.489770889E-1
4.966755042E1,4.740596414E-1,6.998610497E-1,-8.974552155E-1
4.976755042E1,3.745883703E-2,-1.425329804E0,7.753400803E-1
4.986755042E1,1.355449915E0,-6.304078102E0,6.493631363E0
4.996755042E1,-1.768895864E0,-2.264021873E0,2.035877228E0
5.006755042E1,-1.280805349E0,6.471602917E0,-5.299733162E0
5.016755042E1,-7.124882936E-2,-3.487542629E0,4.520503998E0
5.026755042E1,-4.346953034E-1,-5.617686749E0,4.438088417E0
5.036755042E1,-1.149067163E0,-3.351380825E-1,-1.058874130E-1
5.046755042E1,-1.893942356E-1,1.567684412E0,-3.484627724E0
5.056755042E1,-8.106838465E-1,-2.497275591E0,7.291536331E-1
5.066755042E1,-1.104722142E0,1.201680660E0,-3.396903992E0
5.076755042E1,8.259884715E-1,9.777579308E-1,-6.665039062E-1
5.086755042E1,-2.152817965E0,1.613314152E0,-3.133134365E0
5.096755042E1,2.578264713E0,-2.345067739E0,3.230435371E0
5.106755042E1,2.844083905E-1,-9.951139688E-1,-1.075077057E-1
5.116755042E1,-9.029886127E-1,7.917480469E-1,9.523830414E-1
5.126755042E1,5.724152327E-1,1.864888430E0,-4.634264469E0
5.136755042E1,-1.466937423E0,4.453495026E0,-3.122577190E0
5.146755042E1,-1.055962324E0,-7.082546234E0,5.283795357E0
5.156755042E1,4.737297535E0,8.610069752E-1,-6.820012093E0
5.166755042E1,3.557243109E0,6.902481079E0,-6.006120682E0
5.176755042E1,-2.616931915E0,-1.035511684E1,7.361791611E0
5.186755042E1,-7.631752491E-1,-3.869153023E0,2.726955414E0
5.196755042E1,2.873228788E0,-1.878821373E0,2.524790764E0
5.206755042E1,-6.163994789E0,1.428768158E0,1.050620079E0
5.216755042E1,-2.255675793E0,-7.541316748E-1,4.998226166E-1
5.226755042E1,-1.570614934E0,-4.587614059E0,5.087744713E0
5.236755042E1,-5.489487648E-1,-5.122287273E0,4.047909737E0
5.246755042E1,2.101388931E0,5.934833527E0,-5.322120190E0
5.256755042E1,-1.548284292E0,-3.943301678E0,4.853983879E0
5.266755042E1,-8.262885213E-1,-2.748258591E0,1.749637604E0
5.276755042E1,-3.777968407E0,-3.301588774E0,5.257130623E0
5.286755042E1,-5.755976439E-1,-1.053076863E0,-2.363424301E-1
5.296755042E1,-1.418161273E0,-1.623324037E0,2.500668526E0
5.306755042E1,-1.778318644E0,-3.329571247E0,6.027836800E0
5.316755042E1,-2.653385878E0,2.764600754E0,-3.807957172E0
5.326755042E1,-8.285744786E-1,2.070127249E0,-5.224865913E0
5.336755042E1,4.568852186E-1,-2.820375919E0,5.296228409E0
5.346755042E1,1.532159925E0,-4.903121948E0,5.929736137E0
5.356755042E1,1.880786657E0,1.425481319E0,-1.940599442E0
5.366755042E1,3.260400295E-1,-1.589385271E0,-1.027939796E0
5.376755042E1,-7.908149958E-1,-5.432486534E-2,-2.024940014E0
5.386755042E1,7.150866389E-1,5.503275394E-1,-2.583602905E0
5.396755042E1,-1.222010493E0,1.696016788E0,-2.046375275E0
5.406755042E1,5.725748539E-1,3.240385056E-1,-3.217575073E0
5.416755042E1,-1.484713793E0,-4.880312920E0,5.209163666E0
5.426755042E1,1.715816021E0,-2.139306068E0,1.311904907E0
5.436755042E1,-1.636664867E0,-2.446501255E0,-1.503504276E0
5.446755042E1,-6.068193316E-1,-1.931867838E0,1.101150513E0
5.456755042E1,1.926847696E-1,1.823427677E0,-3.163836956E0
5.466755042E1,-5.206025839E-1,1.560650349E0,-2.851992607E0
5.476755042E1,-1.964360714E0,-2.227748394E0,2.626453400E0
5.486755042E1,-2.183284283E0,-1.766435623E0,3.276487350E0
5.496755042E1,-5.684909225E-1,1.299499035E0,-2.554422379E0
5.506755042E1,-4.044340253E-1,1.448442698E0,-3.648518085E0
5.516755042E1,-2.122170687E0,2.634761333E-1,-2.643166542E0
5.526755042E1,-1.594043255E0,-5.114430428E0,6.833906174E0
5.536755042E1,-1.558341384E-1,8.107662201E-3,-7.433204651E-1
5.546755042E1,-3.093760014E-1,-5.480455399E0,5.038671494E0
5.556755042E1,-8.283303380E-1,-1.587348461E0,-1.222061157E0
5.566755042E1,8.126192689E-1,-1.198260903E0,-2.718661308E0
5.576755042E1,-4.971715808E-1,7.084457874E-1,1.943678856E0
5.586755042E1,-2.121062756E0,6.808738708E-1,-9.852466583E-1
5.596755042E1,-8.429610729E-1,2.160532713E0,-2.386113167E0
5.606755042E1,-7.007840872E-1,4.121703148E0,-5.856407166E0
5.616755042E1,1.024033308E0,-4.450443745E0,2.553546906E0
5.626755042E1,2.819235921E-1,-2.033910751E0,2.219664574E0
5.636755042E1,-4.115935326E0,-1.633630157E0,5.582129478E0
5.646755042E1,-3.177228451E0,-1.071772099E0,-8.560180664E-2
5.656755042E1,-5.363684654E0,-2.338028431E0,5.684766769E-1
5.666755042E1,-3.748637438E0,7.680296898E-1,-2.964692116E0
5.676755042E1,9.198266268E-2,-1.437195539E0,3.767995834E-1
5.686755042E1,-5.398523808E-2,-4.672915936E-1,1.271076202E0
5.696755042E1,-8.569070697E-1,-1.577786803E0,3.705925941E0
5.706755042E1,1.137409091E0,1.373168707E0,-2.530261517E0
5.716755042E1,-2.411417484E0,-1.812254429E0,2.472465515E0
5.726755042E1,-6.248066425E-1,-8.941364288E-1,-8.469829559E-1
5.736755042E1,3.966474235E-1,-1.743524790E0,7.619953156E-2
5.746755042E1,1.629221201E0,-5.137690544E0,3.795214653E0
5.756755042E1,6.257511377E-1,-3.575397015E0,2.317878723E0
5.766755042E1,1.718537092E0,-2.671130657E0,-8.966970444E-1
5.776755042E1,2.725062132E0,4.117905617E0,-1.118030357E1
5.786755042E1,2.681149483E0,7.451243401E0,-6.756491184E0
5.796755042E1,5.401772499E0,4.381261826E0,-7.609300137E0
5.806755042E1,2.086725473E0,-2.402759552E0,1.769809723E0
5.816755042E1,-1.037216187E-1,1.615092278E0,-8.301544189E-1
5.826755042E1,2.809505701E0,4.607153416E0,-2.369386673E0
5.836755042E1,-2.075742006E0,-1.372585177E0,3.231506348E-1
5.846755042E1,2.802316666E0,1.380041838E0,-2.246647835E0
5.856755042E1,3.382777452E0,-1.458792686E0,-3.310618401E0
5.866755042E1,4.326329708E0,6.638342857E0,-8.169223785E0
5.876755042E1,-7.434619427E0,3.424245119E-2,-4.794330597E-1
5.886755042E1,-9.101116657E-2,9.502486229E0,-1.100227642E1
5.896755042E1,-5.467839241E-1,-5.646861076E0,3.366331100E0
5.906755042E1,-8.896221519E-1,-8.096304893E0,5.376700401E0
5.916755042E1,8.213071823E-1,1.613609076E0,5.999517441E-1
5.926755042E1,3.532463312E-2,4.053800583E0,-6.445655346E0
5.936755042E1,-3.054131746E0,2.893797874E0,-4.760643005E0
5.946755042E1,-1.064604521E0,-3.180844307E0,5.715700150E0
5.956755042E1,-3.499937773E0,-1.685659647E0,1.855137825E0
5.966755042E1,2.185988903E0,6.028328419E0,-9.054454803E0
5.976755042E1,1.235942125E0,-2.230389833E0,-2.131480217E0
5.986755042E1,9.065656662E-1,3.348805666E0,-1.018409729E-1
5.996755042E1,-2.467050314E0,-8.716133833E-1,-2.930297852E-1
6.006755042E1,1.209651947E0,1.011814475E0,1.566371918E-1
6.016755042E1,-1.209256649E-1,-1.699225545E0,4.306762695E0
6.026755042E1,-1.394386768E0,-5.680499554E0,1.850558281E0
6.036755042E1,-3.590661526E0,-5.922564507E0,6.250459671E0
6.046755042E1,-1.853596330E0,-5.303565025E0,7.430664062E0
6.056755042E1,-7.046898007E-1,-7.932895422E-1,-3.489909172E0
6.066755042E1,-4.361863136E0,6.157896996E0,-2.788311958E0
6.076755042E1,-3.473343849E0,-1.357255936E0,7.772254944E-1
6.086755042E1,1.557459354E0,-8.944945335E0,3.046098709E0
6.096755042E1,-1.652403355E0,-5.979060173E0,1.294606590E1
6.106755042E1,6.788948059E0,-7.753487587E0,5.689871788E0
6.116755042E1,-2.378608584E-1,-1.281940103E0,1.075131416E0
6.126755042E1,2.033597946E0,-8.388984799E-1,-1.354181290E0
6.136755042E1,-1.800569177E0,-4.697215855E-1,-4.691579342E0
6.146755042E1,-1.960671663E0,-5.396558762E0,2.438086510E0
6.156755042E1,-2.594496489E0,-3.398625612E0,1.651586533E0
6.166755042E1,1.493151546E0,2.769033313E-1,-1.447976112E0
6.176755042E1,2.451419592E0,-8.554303646E-1,3.878459930E-1
6.186755042E1,-5.134336948E-1,-3.060528994E0,1.118011475E-1
6.196755042E1,-1.864525080E-1,-1.535487771E-1,-1.086193085E0
6.206755042E1,-1.771764755E-1,-1.652657747E0,1.192998886E0
6.216755042E1,-3.200823545E0,3.727475405E-1,3.673331261E0
6.226755042E1,-2.769177198E0,-5.422431231E-1,1.892949104E0
6.236755042E1,2.629524469E0,-6.265430450E-1,-7.729310989E-1
6.246755042E1,-7.035983562E0,-9.267986298E0,1.071006012E1
6.256755042E1,-5.465604305E0,-7.978472710E-1,1.893576622E0
6.266755042E1,1.914957762E0,-3.568204641E0,5.404097557E0
6.276755042E1,2.414873123E0,7.421676636E0,-9.822340965E0
6.286755042E1,2.415453911E0,1.871262908E0,-7.457053661E0
6.296755042E1,4.104093552E0,-2.824613571E0,-1.351470947E0
6.306755042E1,6.092178822E-1,-1.924524784E0,-3.719703674E0
6.316755042E1,-7.960700989E-2,1.194656491E0,-2.591485500E0
6.326755042E1,5.466573238E-1,-8.605841994E-1,1.322032928E0
6.336755042E1,2.438690424E0,-7.440829277E-2,2.614339828E0
6.346755042E1,2.897207499E0,-3.458603859E0,-1.035932541E0
6.356755042E1,-2.603610992E0,-6.003353596E0,1.094475937E1
6.366755042E1,-3.704552650E-1,-6.582702637E0,3.905803680E0
6.376755042E1,2.245924473E-1,3.720303059E0,-3.033802986E0
6.386755042E1,6.570803642E0,-2.153277397E-3,-3.726848602E0
6.396755042E1,3.505327463E0,-5.194612026E0,5.093965530E0
6.406755042E1,3.589259863E0,1.145804405E0,-6.713171005E-1
6.416755042E1,4.296157360E-1,-7.470664978E0,6.449080467E0
6.426755042E1,5.601995468E0,1.728303671E0,1.275529861E-1
6.436755042E1,2.471284389E0,1.012212634E-1,-4.481654644E0
6.446755042E1,-1.006737518E1,-7.437810898E0,1.106166363E1
6.456755042E1,5.060045719E0,-1.612979174E0,-4.099949837E0
6.466755042E1,5.619045258E0,1.821868181E0,1.966524124E1
6.476755042E1,6.798094749E0,1.066812420E1,-7.384231091E0
6.486755042E1,2.978474617E0,-4.223766327E0,3.275344849E0
6.496755042E1,-2.767714977E0,3.322225571E0,-1.367193222E0
6.506755042E1,-1.440615177E0,-5.399587631E0,1.454713821E0
6.516755042E1,3.268042326E0,1.855407476E0,-3.932382107E0
6.526755042E1,5.665471554E-1,-1.969441533E0,9.797716141E-1
6.536755042E1,7.845265865E-1,-1.672817469E0,2.053126335E0
6.546755042E1,2.414377689E0,1.033066273E0,-1.862450600E0
6.556755042E1,2.968245268E0,-2.063272953E0,1.773033142E0
6.566755042E1,4.784666061E0,-1.027407646E0,3.855466843E-1
6.576755042E1,4.055337429E0,1.766958237E0,-6.241436005E-1
6.586755042E1,3.265734196E0,-1.396590233E0,6.267919540E-1
6.596755042E1,5.963745117E-1,-1.807430863E0,3.090882301E0
6.606755042E1,2.960311890E0,6.840667725E-1,-3.209315300E0
6.616755042E1,-1.704834461E0,-3.150116444E0,6.044572830E0
6.626755042E1,-6.997168064E-1,8.595584631E-1,-2.214264870E0
6.636755042E1,-2.563288212E-1,1.671271682E0,-1.560742378E0
6.646755042E1,-1.955769420E0,-5.092046261E-1,6.939830780E-1
6.656755042E1,2.907223225E0,-1.288540363E-1,-6.380853653E-1
6.666755042E1,2.398566246E0,-3.251796961E-1,1.626358032E-1
6.676755042E1,8.663671017E-1,7.933359146E-1,-2.188832760E0
6.686755042E1,2.550836563E0,6.267224550E-1,-1.592622757E0
6.696755042E1,-3.806865215E-1,6.886124611E-4,5.828418732E-1
6.706755042E1,-2.075343609E0,1.849468231E0,-3.260346889E0
6.716755042E1,-1.671007156E0,-1.888504267E0,2.102947235E0
6.726755042E1,-1.317051768E0,-2.262442708E-1,-1.083160400E0
6.736755042E1,-1.953380585E0,2.338498116E0,-2.608586311E0
6.746755042E1,9.132590294E-1,6.232267618E-2,-6.160278320E-1
6.756755042E1,1.261301041E0,-4.024896622E0,1.051801682E0
6.766755042E1,4.393240213E-1,-6.155526638E-2,-1.093772888E0
6.776755042E1,-8.877645731E-1,-2.014750481E0,1.368474007E0
6.786755042E1,-3.256587982E-1,-2.124410152E0,3.836460114E0
6.796755042E1,2.296366692E-1,-1.049219370E0,-1.715477943E0
6.806755042E1,-4.155501127E-1,-3.276382446E0,2.661709785E0
6.816755042E1,3.019531369E-1,-1.202358723E0,-1.565031052E0
6.826755042E1,-1.983574629E-1,-1.541983724E0,3.056981087E0
6.836755042E1,1.446306705E-3,2.751506329E0,-2.777268410E0
6.846755042E1,3.701207042E-1,1.155641556E0,4.971542358E-1
6.856755042E1,3.458603024E-1,-2.278624535E0,7.376194000E-1
6.866755042E1,1.168251276E0,-1.643000126E0,1.928129196E0
6.876755042E1,1.794956565E0,2.140702724E0,-1.971519470E0
6.886755042E1,7.283718586E-1,7.805749178E-1,-1.443686485E0
6.896755042E1,-1.200057268E0,-4.192598820E0,3.631481171E0
6.906755042E1,-2.357252836E-1,-1.680270195E0,-6.422233582E-2
6.916755042E1,9.625952840E-1,3.872720003E-1,-9.140748978E-1
6.926755042E1,-3.727269173E-2,-1.384416580E0,2.642642021E0
6.936755042E1,5.317524076E-1,1.498481750E0,-1.840094566E0
6.946755042E1,-2.233093977E-1,-1.430627346E0,1.466183662E0
6.956755042E1,-1.875323057E-1,-1.994354725E0,1.638339996E0
6.966755042E1,7.491843104E-1,1.413746953E0,-1.912928581E0
6.976755042E1,6.245211363E-1,5.335868001E-1,2.909975052E-1
6.986755042E1,4.985053241E-1,-1.216162205E0,5.867214203E-1
6.996755042E1,-3.370279074E-2,-7.853512764E-1,4.145364761E-1
7.006755042E1,6.277003884E-1,-2.095485210E0,9.577751160E-2
7.016755042E1,-1.520130396E0,2.260160208E0,-3.038048744E0
7.026755042E1,1.075767636E0,3.356198072E-1,9.202318192E-1
7.036755042E1,-2.499492168E-1,-1.325918674E0,5.948123932E-1
7.046755042E1,1.480737925E0,2.348251820E0,-3.562958717E0
7.056755042E1,-5.013779402E-1,2.673434615E-1,-1.334467888E0
7.066755042E1,-4.666731358E-1,2.738347769E0,-3.329951286E0
7.076755042E1,-4.212016106E0,-8.542338610E-1,9.846401215E-2
7.086755042E1,-1.122194052E0,1.745787144E0,-3.999236107E0
7.096755042E1,-2.725171447E-1,-4.205802441E0,3.289900780E0
7.106755042E1,2.680566013E-1,1.489669085E0,-2.192938805E0
7.116755042E1,3.681502819E0,2.486472845E0,-4.944573402E0
7.126755042E1,2.775942326E0,-2.206868410E0,1.185473442E0
7.136755042E1,3.693580627E-3,3.167297363E0,-5.630227089E0
7.146755042E1,-2.711502314E-1,-3.791944981E-1,7.249259949E-1
7.156755042E1,6.686886549E-1,2.270650148E0,-2.976763248E0
7.166755042E1,-2.363518476E-1,-5.172543526E-1,-6.612215042E-1
7.176755042E1,-2.213993073E0,-4.851134300E0,3.609107018E0
7.186755042E1,6.140393019E-2,-6.243960857E-1,-3.392810345E0
7.196755042E1,7.145918608E-1,-9.688197374E-1,1.280503273E0
7.206755042E1,8.877557516E-2,3.158521414E0,-3.363699913E0
7.216755042E1,8.104661107E-1,-1.303853035E0,3.033411980E0
7.226755042E1,-1.221840739E0,-3.874281168E0,1.766179085E0
7.236755042E1,-3.743975759E-1,2.120525360E0,-2.778329849E0
7.246755042E1,-1.209333181E0,-1.053266525E0,3.108591080E0
7.256755042E1,1.660682678E0,2.820415020E0,-3.034569740E0
7.266755042E1,-2.179468870E-1,2.319521904E-1,-8.133726120E-1
7.276755042E1,-3.748340011E-1,-1.068208456E0,-3.179254532E-1
7.286755042E1,1.077274442E0,5.958709121E-1,-1.934576511E0
7.296755042E1,3.696188927E-1,1.655313373E-1,4.623212814E-1
7.306755042E1,-1.518543959E-1,1.160787821E0,-1.673129082E0
7.316755042E1,2.111966610E-1,3.899298906E-1,-1.954080582E0
7.326755042E1,1.317929268E0,3.183370233E-1,1.476319313E0
7.336755042E1,8.638713360E-1,-3.689552844E-1,-1.366098404E0
7.346755042E1,9.317377806E-1,-4.636967778E-1,2.314361572E0
7.356755042E1,3.146262169E-1,-8.321981430E-1,5.012531281E-1
7.366755042E1,-1.658515930E0,3.777188063E-1,-6.952791214E-1
7.376755042E1,-1.987050772E0,-4.809410572E0,3.069175720E0
7.386755042E1,1.222433448E0,-1.303417683E-1,-1.247061729E0
7.396755042E1,8.674798012E-1,-4.339765072E0,4.439624786E0
7.406755042E1,1.017010570E0,2.748625278E0,-5.186114311E0
7.416755042E1,1.382459164E0,-2.757548332E0,1.115177155E0
7.426755042E1,8.815258145E-1,3.765601158E0,-4.726610184E0
7.436755042E1,8.478558064E-1,-3.029910088E0,3.473465919E0
7.446755042E1,1.234238386E0,7.731413841E-2,-9.303913116E-1
7.456755042E1,-9.293817282E-1,-4.256182194E0,4.193851471E0
7.466755042E1,-8.080911636E-2,-7.626925707E-1,-2.871589661E-1
7.476755042E1,8.417606354E-3,-3.580367565E-2,-2.596950531E-2
7.486755042E1,-7.081001997E-2,-1.691728830E0,1.356089592E0
7.496755042E1,-7.614770532E-1,-4.530107081E-1,1.391514778E0
7.506755042E1,-3.666165471E-1,4.347952008E-1,-5.245494843E-1
7.516755042E1,9.233106375E-1,7.266842723E-1,-8.141841888E-1
7.526755042E1,9.269462228E-1,-7.661767602E-1,2.671146393E-2
7.536755042E1,1.441127181E0,1.573584080E0,1.911401749E-1
7.546755042E1,1.443445683E0,-2.195902348E0,3.472471237E-1
7.556755042E1,-8.063666821E-1,1.456737757E0,-3.184304714E0
7.566755042E1,-1.820079088E-1,-6.135361195E-1,-1.689424515E-1
7.576755042E1,-1.106735468E-1,2.065708160E0,-2.716933250E0
7.586755042E1,8.858519793E-1,-2.289531708E0,2.082212448E0
7.596755042E1,6.194036007E-1,-8.201736212E-2,2.432250977E-2
7.606755042E1,3.735635877E-1,-1.718875408E0,5.395355225E-1
7.616755042E1,1.766899586E0,-9.376822710E-1,1.064346313E0
7.626755042E1,4.851465225E-1,-5.934705734E-1,1.530404091E0
7.636755042E1,-2.088651657E-1,-9.582259655E-1,1.592492104E0
7.646755042E1,1.957130432E-2,-5.251371861E-1,5.947875977E-1
7.656755042E1,-3.835830688E-1,-3.485522568E-1,-2.306661606E0
7.666755042E1,-2.454914331E0,-2.323113441E0,3.140816689E0
7.676755042E1,3.908730745E-1,3.767144680E-1,-8.136615753E-1
7.686755042E1,-6.436673999E-1,-1.193461418E0,1.752527237E0
7.696755042E1,2.108104229E-1,-3.986159861E-1,-8.578310013E-1
7.706755042E1,4.222350121E-1,-2.589302540E0,1.620847702E0
7.716755042E1,-4.985479116E-1,-1.476793289E0,2.502821922E0
7.726755042E1,1.354518771E0,-1.315804958E0,-2.327044487E0
7.736755042E1,-3.933668137E-2,2.466876745E0,-2.110514641E0
7.746755042E1,-8.926647902E-1,-2.356019258E0,-7.968378067E-1
7.756755042E1,-1.004234791E0,7.000565529E-3,-1.828056812E0
7.766755042E1,-4.513543844E-2,5.099772811E-1,-2.054996967E0
7.776755042E1,4.615570009E-1,2.134379387E0,-2.729684353E0
7.786755042E1,8.680086136E-1,-1.358719826E0,2.512886047E0
7.796755042E1,5.861792564E-1,-1.377779841E0,4.185171127E-1
7.806755042E1,1.983550787E-1,-2.249212742E0,1.111040115E-1
7.816755042E1,-7.163066864E-1,-1.538688898E0,2.747268677E0
7.826755042E1,-5.927720070E-1,-3.321359158E0,2.122632027E0
7.836755042E1,-2.742778659E-1,1.710425138E0,-1.634526253E0
7.846755042E1,-4.977073073E-1,-1.056480050E0,1.869136810E0
7.856755042E1,-1.670521498E0,-3.666029930E0,3.271024704E0
7.866755042E1,7.968710661E-1,1.436024904E0,-1.395298004E0
7.876755042E1,1.312103033E0,-6.747137308E-1,7.560367584E-1
7.886755042E1,-4.981846213E-1,2.139540911E0,-2.368145943E0
7.896755042E1,-4.432191849E-1,-6.970548034E-1,-2.074422836E-1
7.906755042E1,-1.616530895E0,1.563971639E0,-2.362402916E0
7.916755042E1,-6.223586202E-1,9.724084139E-1,-6.693840027E-1
7.926755042E1,6.217444539E-1,3.086760521E0,-3.295571327E0
7.936755042E1,-2.206166506E0,-1.257300854E0,-1.354888916E0
7.946755042E1,4.694421887E-1,-1.432149649E0,-1.371345520E-1
7.956755042E1,-4.776634574E-1,-2.920756340E0,3.336761475E0
7.966755042E1,-2.921020746E0,-1.423976660E0,3.070424080E0
7.976755042E1,3.677927256E-1,4.086996555E0,-2.523963451E0
7.986755042E1,5.532381535E-1,-1.501449943E-1,-9.280014038E-2
7.996755042E1,2.499539375E0,2.136190176E0,-3.128936768E0
8.006755042E1,1.457096100E0,-2.601321220E0,2.956833839E0
8.016755042E1,8.661560416E-1,3.960065246E-1,-4.770746231E-1
8.026755042E1,-1.445001960E0,-1.367456555E0,8.679609299E-1
8.036755042E1,-3.754322529E-1,4.105635285E-1,-2.574889660E0
8.046755042E1,-6.047674417E-1,4.526060820E-2,-3.811187744E-1
8.056755042E1,1.871469498E0,2.731631041E0,-3.885157585E0
8.066755042E1,2.404769659E-1,8.334559202E-2,1.393460274E0
8.076755042E1,5.484974384E-2,-2.407584667E0,3.946537971E0
8.086755042E1,5.453290939E-1,7.293388247E-1,-1.697474480E0
8.096755042E1,7.145289779E-1,-4.460084736E-1,1.148161888E0
8.106755042E1,1.933300495E-2,1.334773660E0,-2.102362156E0
8.116755042E1,3.230495453E-1,-2.156933546E0,-3.225889206E-1
8.126755042E1,-1.301487684E0,-2.556288481E0,3.792099953E0
8.136755042E1,-5.936883688E-1,-4.998981953E-1,6.713562012E-1
8.146755042E1,-5.839347839E-1,-2.119136572E0,1.856426239E0
8.156755042E1,-1.067003310E-1,2.673526287E0,-2.664724350E0
8.166755042E1,-1.278992414E0,-1.841744781E0,1.755590439E0
8.176755042E1,1.870423198E0,2.159650922E-1,-6.604232788E-1
8.186755042E1,2.946198940E0,-3.769279480E0,-1.144762993E0
8.196755042E1,3.899200916E0,5.148381591E-1,-6.238050461E-1
8.206755042E1,-1.208560467E-1,8.291728497E-1,-1.896000862E0
8.216755042E1,-1.389472485E-1,-2.962305546E0,4.799441338E0
8.226755042E1,5.677021742E-1,2.608830452E0,-3.655028820E0
8.236755042E1,-7.740248442E-1,-2.890774488E0,5.329990387E-1
8.246755042E1,8.197875023E-1,3.888086319E0,-6.543784142E0
8.256755042E1,3.243831396E-1,1.192205191E0,-6.007636547E0
8.266755042E1,-1.452261686E0,-3.210443020E0,5.760224342E0
8.276755042E1,5.393580198E-1,9.376167059E-1,-2.335655689E0
8.286755042E1,-7.708685994E-1,-2.546725273E0,3.477819443E0
8.296755042E1,2.387965202E0,-2.067214251E-1,-1.872024536E0
8.306755042E1,1.345732927E0,1.264739633E0,-3.659031391E0
8.316755042E1,-2.564928770E0,1.211863756E-2,2.625389099E0
8.326755042E1,-5.712822080E-1,2.189359188E0,-2.601603508E0
8.336755042E1,-1.613340378E-1,-1.775762200E0,2.727197647E0
8.346755042E1,-1.246906519E0,1.067672253E0,-7.195358276E-1
8.356755042E1,-8.506003022E-1,-6.629713178E-1,-9.489994049E-1
8.366755042E1,-2.098978162E-1,1.181257486E0,-1.316261292E-2
8.376755042E1,-3.875070810E-1,-7.892486453E-2,-1.116892815E0
8.386755042E1,-5.247866511E-1,7.154979110E-1,-1.976000786E0
8.396755042E1,5.948690176E-1,-4.111192226E0,2.565540314E0
8.406755042E1,8.837959170E-1,5.413368940E-1,-8.389892578E-1
8.416755042E1,1.100934863E0,-1.702555895E0,1.609238625E0
8.426755042E1,-2.760859728E-1,1.875412822E0,-1.856693268E0
8.436755042E1,-5.293081999E-1,9.516598582E-1,4.461536407E-1
8.446755042E1,2.119166851E-1,2.310627699E-2,-1.727294922E-1
8.456755042E1,7.698839903E-1,1.527072310E0,-3.483541012E0
8.466755042E1,-1.683586359E0,-2.889038026E-1,1.837772369E0
8.476755042E1,-6.154533625E-1,-2.291463912E-1,3.436288834E-1
8.486755042E1,8.234534264E-1,-6.903535128E-1,5.813484192E-1
8.496755042E1,1.026878119E0,-1.333259344E0,5.428552628E-1
8.506755042E1,1.307841778E0,2.156207561E0,-4.037543297E0
8.516755042E1,-5.268357992E-1,-2.087444305E0,3.828584671E0
8.526755042E1,-3.827283382E-1,-9.892224073E-1,6.798610687E-1
8.536755042E1,3.375243545E-1,-1.361374378E0,-1.071068764E0
8.546755042E1,-7.557202578E-1,-7.227379680E-1,2.242336273E-1
8.556755042E1,-9.723781943E-1,1.284714699E0,-2.537488937E0
8.566755042E1,-1.126101136E0,1.950937510E-1,-9.681825638E-1
8.576755042E1,-1.217254639E0,-2.658791780E0,3.168344498E0
8.586755042E1,2.159812927E0,-2.017075062E0,2.956421852E0
8.596755042E1,2.675439358E0,-3.070607901E0,4.030881882E0
8.606755042E1,1.083528757E0,1.668283939E0,-2.716091156E0
8.616755042E1,-1.325047374E0,-9.125230312E-1,-2.503881454E-1
8.626755042E1,-2.435330391E0,3.947089672E0,-2.638402939E0
8.636755042E1,5.573012233E-1,1.594296098E0,-4.421648502E0
8.646755042E1,1.311359048E0,-5.844288826E0,4.549149513E0
8.656755042E1,-5.140063763E-1,1.145240664E-1,2.983846664E-1
8.666755042E1,-1.629240513E-1,3.608360291E-1,5.155658722E-1
8.676755042E1,1.267334819E0,6.856580377E-1,-1.657910347E0
8.686755042E1,-1.300267220E0,7.747344971E-1,1.488677979E0
8.696755042E1,1.441407204E-1,-1.595844269E0,1.486923218E0
8.706755042E1,-3.348679543E-1,-2.890556335E0,1.462162971E0
8.716755042E1,-1.931320429E-1,-1.341016889E0,1.658646584E0
8.726755042E1,-5.320096016E-1,1.787488222E0,-3.508615971E0
8.736755042E1,5.683722496E-1,-4.372014701E-1,-1.001587868E0
8.746755042E1,-1.089595795E0,-1.868672132E0,3.018546104E0
8.756755042E1,-2.527315855E0,-5.808314323E0,6.736625671E0
8.766755042E1,1.444693208E-1,-4.437595606E-2,1.254434586E-1
8.776755042E1,-2.321505547E-2,-1.410806656E0,1.173828125E0
8.786755042E1,1.060939980E1,1.253613830E-1,-2.747728348E0
8.796755042E1,-5.894035101E-2,3.318067551E0,-3.983173370E-1
8.806755042E1,2.317646742E-1,1.665148735E0,-2.526553631E0
8.816755042E1,7.707271576E-1,1.070369244E0,-1.465894699E0
8.826755042E1,-1.460106730E0,-7.517942190E-1,1.152328491E0
8.836755042E1,-2.774442196E0,-2.601340294E0,2.100853920E0
8.846755042E1,2.363574505E-2,-8.446906805E-1,1.988527298E0
8.856755042E1,4.473976195E-1,5.096638680E0,-4.172715187E0
8.866755042E1,5.155589581E-1,2.424291968E-1,2.286634445E-1
8.876755042E1,-1.456301689E0,-4.139785767E0,4.422424316E0
8.886755042E1,-2.063437700E-1,3.100452185E0,-3.472391129E0
8.896755042E1,-7.841730118E-1,-2.050052643E0,1.200356483E0
8.906755042E1,5.324639678E-1,7.048632503E-1,-1.543017387E0
8.916755042E1,8.118712902E-1,1.493750811E0,-1.221334457E0
8.926755042E1,4.614646435E-1,-4.225166798E0,2.702903748E0
8.936755042E1,-1.791941524E0,3.973400593E0,-2.948839188E0
8.946755042E1,-1.661667347E0,-1.198979139E0,7.241668701E-1
8.956755042E1,-9.396784902E-1,-2.980754972E-1,3.025884628E-1
8.966755042E1,-1.495381474E0,2.395190954E0,-1.669686317E0
8.976755042E1,7.577109337E-2,-3.710598707E0,2.231344223E0
8.986755042E1,-2.057372332E-1,1.372827291E0,-3.109202862E0
8.996755042E1,1.693192482E0,-6.221787930E-1,2.929410934E-1
9.006755042E1,7.515364289E-1,6.852477789E-2,1.614789963E-1
9.016755042E1,3.418372273E-1,7.996618748E-1,-1.285695076E0
9.026755042E1,-2.254583836E-1,-1.199485302E0,1.532198906E0
9.036755042E1,-8.920546770E-1,7.021673918E-1,-2.815020561E0
9.046755042E1,-5.288547873E-1,-2.939525127E0,-2.701606750E-1
9.056755042E1,-3.811372519E-1,-1.095437407E-1,-5.933723450E-1
9.066755042E1,1.022659898E0,1.944620848E0,-1.488913536E0
9.076755042E1,1.698640466E0,1.381279469E0,-2.791759014E0
9.086755042E1,7.432787418E-1,6.404861808E-1,-1.041489601E0
9.096755042E1,2.011383772E-1,2.091227174E-1,-1.271066666E0
9.106755042E1,2.521366119E0,-7.364600897E-1,-1.972450256E0
9.116755042E1,-1.134066105E0,2.061398745E0,-3.341850758E0
9.126755042E1,-7.179439068E-2,-1.015936017E0,-8.972940445E-1
9.136755042E1,-1.083933592E0,2.426126003E-1,-2.148438931E0
9.146755042E1,-2.856304407E0,-2.136879861E-1,-4.208459854E-1
9.156755042E1,2.878249884E-1,3.411402702E0,-2.680459976E0
9.166755042E1,1.976045609E0,-3.245482922E0,3.384667397E0
9.176755042E1,3.389496326E0,-3.608165264E0,1.676088333E0
9.186755042E1,2.527175903E0,3.260116577E-1,-1.728586197E0
9.196755042E1,-2.724395990E-1,2.701704502E0,-2.199030876E0
9.206755042E1,6.416867971E-1,4.273889661E-1,-2.806853294E0
9.216755042E1,2.357983589E-2,-5.330086231E0,2.446372986E0
9.226755042E1,1.625479460E-1,4.535017014E0,-7.310153008E0
9.236755042E1,-3.223834991E0,-4.185180187E0,4.113794327E0
9.246755042E1,-5.603207946E-1,-5.348256588E0,4.930324554E-1
9.256755042E1,1.395789981E0,-3.088901758E0,-3.111173630E0
9.266755042E1,2.972055435E0,-1.125045121E-1,-1.117911053E1
9.276755042E1,3.850687027E0,1.407233000E0,-8.912399292E0
9.286755042E1,-5.168861389E0,7.054789066E0,-2.843795300E0
9.296755042E1,1.894938588E0,-5.136627197E0,-4.594230652E-1
9.306755042E1,4.307032108E0,7.919776440E-1,-1.795040131E0
9.316755042E1,7.757371664E-1,-1.381799817E0,7.295951843E-1
9.326755042E1,-2.863535881E0,1.818269610E0,-1.839429855E0
9.336755042E1,-9.787881374E-1,7.872865796E-1,-1.828291893E0
9.346755042E1,1.852349877E0,7.060253024E-1,-7.603311539E-1
9.356755042E1,-2.109909058E-2,1.424589992E0,-2.057617664E0
9.366755042E1,-8.494249582E-1,-1.829866529E0,1.324854851E0
9.376755042E1,-1.370815039E0,-1.253167391E-1,5.293130875E-1
9.386755042E1,-4.138907909E0,-1.723083496E0,3.218860626E0
9.396755042E1,-1.561417699E0,-1.648173571E0,3.289285660E0
9.406755042E1,-2.276200056E0,-2.051153183E0,1.629298210E0
9.416755042E1,-6.574236751E-1,-8.117110729E-1,8.026676178E-1
9.426755042E1,-8.608530164E-1,-2.264267921E0,2.275487900E0
9.436755042E1,-3.959856033E-1,-7.112222910E-1,1.143455505E-2
9.446755042E1,2.448153198E-1,3.221427202E-1,-2.099822521E0
9.456755042E1,1.685529470E0,-3.173125684E-1,6.520700455E-1
9.466755042E1,5.656340718E-1,3.420535564E0,-1.964263916E0
9.476755042E1,-5.030690432E-1,2.477974653E0,-2.201939583E0
9.486755042E1,-9.330497980E-1,1.121590853E0,-1.655652046E0
9.496755042E1,2.956283092E-1,4.625974298E-1,-1.999256134E0
9.506755042E1,1.362422943E0,1.345273852E0,-3.204171181E0
9.516755042E1,1.222366571E0,-2.039596081E0,2.064779282E0
9.526755042E1,7.151448727E-2,-3.441498280E-1,-1.078287125E0
9.536755042E1,-4.935269356E-1,4.988285899E-1,-2.527322769E-1
9.546755042E1,-1.856011152E0,-7.585345507E-1,1.993860245E0
9.556755042E1,6.107267141E-1,-1.457699776E0,8.040237427E-1
9.566755042E1,-9.044349194E-3,-3.389874458E0,3.614912987E0
9.576755042E1,8.195265532E-1,-3.053335667E0,2.527648926E0
9.586755042E1,-1.226132393E0,-8.470943570E-1,1.141701698E0
9.596755042E1,7.117178440E-1,7.044176459E-1,4.368095398E-1
9.606755042E1,5.794297457E-1,7.440243959E-1,-1.123302460E0
9.616755042E1,7.487143874E-1,6.580380201E-1,-1.642700195E0
9.626755042E1,9.323480129E-1,2.245145440E-1,-1.068192482E0
9.636755042E1,7.625169754E-1,7.004767656E-2,-2.059373856E-1
9.646755042E1,1.032577038E0,4.659340382E-1,-5.314245224E-1
9.656755042E1,1.076045275E0,-1.440028191E0,-1.074877739E0
9.666755042E1,5.443259478E-1,1.214135885E0,-1.650118828E0
9.676755042E1,4.650695920E-1,2.070080042E0,-2.559448242E0
9.686755042E1,-1.639716625E-1,1.597919941E0,-1.683738708E0
9.696755042E1,-1.593666792E0,-2.565145969E0,1.053237915E0
9.706755042E1,-1.314422846E0,-1.745143890E0,1.380629539E0
9.716755042E1,-6.306290627E-2,-3.283546567E-1,1.652069092E0
9.726755042E1,3.436659575E-1,3.177848458E-1,7.669582367E-1
9.736755042E1,9.233602881E-1,-4.151648283E-1,-7.095718384E-2
9.746755042E1,-6.238275170E-1,-1.231993556E0,-2.375392914E-1
9.756755042E1,-8.628340960E-1,-5.808603764E-1,7.876710892E-1
9.766755042E1,2.420953274E0,4.522721767E0,-1.107108116E1
9.776755042E1,1.748514414E0,-7.030530930E0,7.058303833E0
9.786755042E1,1.125682354E0,-1.997945547E0,5.803356171E-1
9.796755042E1,-1.354323864E0,-3.353999615E0,4.749680519E0
9.806755042E1,-1.138315797E0,-4.113438129E0,4.732968330E0
9.816755042E1,-4.317334890E-1,-9.995727539E-1,-2.073242188E0
9.826755042E1,-2.942938209E-1,2.191947699E-1,-1.531362534E0
9.836755042E1,-2.358714104E0,-2.121603251E0,1.965986252E0
9.846755042E1,2.153688908E0,-9.305173159E-1,-3.018505573E0
9.856755042E1,5.921761990E-1,-7.327920198E-2,6.780242920E-2
9.866755042E1,-3.140584230E-1,-1.100642085E0,1.155290604E0
9.876755042E1,1.039218783E0,4.698402882E-1,-1.021190643E0
9.886755042E1,9.595632553E-3,5.869024992E-1,-5.739383698E-1
9.896755042E1,-2.754782438E-1,-1.888843298E0,-1.349134445E-1
9.906755042E1,6.797616482E-1,2.115374804E-1,-2.310811520E0
9.916755042E1,1.997234225E-1,-2.256506920E0,2.485622406E0
9.926755042E1,-3.225115538E-1,3.540654182E-1,-1.422971725E0
9.936755042E1,3.182335794E-1,2.668972015E-1,-1.379790306E0
9.946755042E1,3.846653998E-1,-7.908574343E-1,-3.738670349E-1
9.956755042E1,-4.673432112E-1,-4.028898239E0,2.447866440E0
9.966755042E1,2.031677365E-1,-1.014786839E0,-7.846632004E-1
9.976755042E1,1.204545140E0,-1.829346061E0,2.526803970E0
9.986755042E1,-3.217073679E0,-3.493926048E0,2.477159500E0
9.996755042E1,9.273954630E-1,3.639655113E-1,-3.338565826E0
1.000675504E2,1.358320355E0,-4.949312210E-1,-6.752090454E-1
1.001675504E2,1.222049832E0,-3.520391226E0,-1.217718124E-1
1.002675504E2,1.050320864E-1,-3.512609005E0,3.196627617E0
1.003675504E2,4.223360419E-1,2.915292025E0,-3.475082397E0
1.004675504E2,3.036801815E-1,3.702448368E0,-3.457287312E0
1.005675504E2,1.037373424E0,-5.127456188E-1,5.840110779E-1
1.006675504E2,2.605316401E0,-3.339179993E0,-3.466652393E0
1.007675504E2,-2.376441240E0,-1.548367977E0,-8.851165771E-1
1.008675504E2,-2.120896101E0,-3.505879879E0,1.476565361E0
1.009675504E2,1.219252586E0,-2.350081444E0,3.702716827E-1
1.010675504E2,-6.725108027E-1,-4.101582050E0,9.555349350E-1
1.011675504E2,-2.824936628E0,-1.360429645E0,1.425828934E-1
1.012675504E2,2.421977043E0,5.755579472E-1,-1.846521378E0
1.013675504E2,1.005084038E0,1.580572128E-2,-3.129844666E0
1.014675504E2,-3.173485994E-1,-3.269709110E0,2.330943108E0
1.015675504E2,1.637281179E0,6.425924301E-1,-6.803569794E-1
1.016675504E2,-3.134920597E-1,-5.952261686E-1,-1.891031265E-1
1.017675504E2,-6.049166322E-1,-1.305770516E0,-9.148263931E-1
1.018675504E2,-1.834314823E0,-3.299460649E0,2.229096413E0
1.019675504E2,1.066801190E0,4.032503128E0,-4.618546009E0
1.020675504E2,-2.877618313E0,-1.500228286E0,2.510206223E0
1.021675504E2,1.673041344E0,-3.250399113E0,2.835147858E0
1.022675504E2,2.021219254E0,-6.070014954E0,6.604271889E0
1.023675504E2,-2.496470690E0,2.446275473E0,1.727848053E-1
1.024675504E2,-1.199527979E0,3.790170431E0,-3.426762581E0
1.025675504E2,-7.264377475E-1,1.714322090E0,-4.012168407E0
1.026675504E2,-3.806674480E-2,6.667811871E-1,-5.300951004E-1
1.027675504E2,-3.726297617E-2,-1.236576319E0,2.536781311E0
1.028675504E2,7.575625181E-2,-1.801990747E0,-3.195174217E0
1.029675504E2,7.356398106E-1,8.354024887E0,-8.567599297E0
1.030675504E2,-8.447818160E-1,-8.022220612E0,1.069408417E0
1.031675504E2,6.805499792E-1,-8.685401917E0,8.513267517E0
1.032675504E2,-1.619793177E0,-5.206658363E0,5.610068321E0
1.033675504E2,5.487115383E-1,5.069497108E0,-9.383178711E0
1.034675504E2,-9.978291392E-1,1.790822506E0,-5.587943077E0
1.035675504E2,1.455498934E0,-2.819753885E0,-8.465671539E-2
1.036675504E2,-8.157178164E-1,-2.863324404E0,-2.560720444E-1
1.037675504E2,3.931064010E-1,-9.523603439E0,5.278633118E0
1.038675504E2,6.483854651E-1,-7.608940601E0,3.834549904E0
1.039675504E2,1.146833420E0,6.606941223E-1,-2.149318218E0
1.040675504E2,-8.181989193E-1,-2.703567028E0,2.311792374E-1
1.041675504E2,8.639900684E-1,-3.171313763E0,2.838454247E0
1.042675504E2,-3.859357834E0,-4.265447617E0,8.912715912E-1
1.043675504E2,6.313776970E-1,-5.634186268E0,4.186306000E-1
1.044675504E2,-6.677604914E-1,4.420664310E-1,-2.111147404E0
1.045675504E2,-1.154411077E0,-5.543710709E0,2.587249756E0
1.046675504E2,2.571637154E0,6.178519726E-1,-6.110291004E0
1.047675504E2,-1.515696764E0,-6.491914749E0,3.825680733E0
1.048675504E2,8.470958471E-1,-3.521254063E0,7.064542770E-1
1.049675504E2,1.152634025E-1,-1.214982152E0,-1.075777054E0
1.050675504E2,7.694627047E-1,-2.155513048E0,-5.011749268E-2
1.051675504E2,-7.983695269E-1,-3.882705927E0,-2.281436920E-1
1.052675504E2,-1.416781306E0,-2.027552128E0,-9.603595734E-2
1.053675504E2,-2.718635798E-1,-2.825096607E0,-3.841152191E-1
1.054675504E2,1.573630452E0,5.937905312E0,-3.539477825E0
1.055675504E2,2.793397903E0,-1.791344881E0,-6.228370667E0
1.056675504E2,3.699565649E0,-8.932456970E0,4.226379395E-1
1.057675504E2,-1.129234314E0,-5.331906319E0,-6.885890961E-1
1.058675504E2,-6.115485430E-1,-7.422232628E0,7.709511757E0
1.059675504E2,-3.647298813E0,1.387041569E0,-6.783135414E0
1.060675504E2,-1.447580457E0,-4.561638832E-1,-3.309564114E0
1.061675504E2,-5.834124684E-1,-2.651230812E0,-5.034362793E0
1.062675504E2,3.115101457E-1,-1.254689217E0,-2.001409531E0
1.063675504E2,5.078627467E-1,-7.569687843E0,6.059844971E0
1.064675504E2,-2.169231892E0,-9.926475525E0,6.629952431E0
1.065675504E2,-2.484825373E0,2.132904053E0,-2.635941505E0
1.066675504E2,-1.052278131E-1,-1.087159157E1,6.851700783E0
1.067675504E2,-2.064684629E0,2.601864338E-1,-7.341194153E-1
1.068675504E2,-1.795105577E0,-5.906755924E0,2.982799530E0
1.069675504E2,9.657299519E-1,-6.031129360E0,2.271108627E0
1.070675504E2,-9.925762415E-1,-9.443571091E0,7.309096336E0
1.071675504E2,2.205271482E0,-1.098593712E0,-3.502771378E0
1.072675504E2,1.387833238E0,-5.293605804E0,1.472118378E0
1.073675504E2,-4.026547670E-1,-8.593270302E0,5.079740524E0
1.074675504E2,2.789816856E-1,-9.581394196E-1,-2.916398525E0
1.075675504E2,2.379139900E0,-2.690538883E0,2.477176666E0
1.076675504E2,1.646308422E0,-5.226211548E0,2.218906403E0
1.077675504E2,3.790163994E-1,-8.094427586E-1,-2.648974895E0
1.078675504E2,-1.490695119E0,-4.794616222E0,1.269216537E-1
1.079675504E2,-1.371640205E0,-9.419297218E0,5.833933830E0
1.080675504E2,1.750223279E0,-5.323319435E0,3.145709991E0
1.081675504E2,1.384215117E0,-3.842264414E0,4.232601166E0
1.082675504E2,1.214074612E0,-3.973745108E0,1.377791405E0
1.083675504E2,-2.482696295E0,-7.643627167E0,7.229055405E0
1.084675504E2,2.431125641E-1,1.978199244E0,-7.071333885E0
1.085675504E2,4.121690750E0,2.659189701E0,-4.876541615E0
1.086675504E2,1.069974899E-1,-8.272475243E0,2.737672806E0
1.087675504E2,1.928022027E0,-1.485478401E0,-3.786392212E-1
1.088675504E2,1.465390325E0,-6.271754265E0,1.500613213E0
1.089675504E2,1.879144192E0,6.768794060E-1,-3.817319393E0
1.090675504E2,6.627575159E-1,-2.896371841E0,-2.811325073E0
1.091675504E2,-6.131256819E-1,-2.832181931E0,8.065185547E-1
1.092675504E2,1.492131233E0,-1.365659475E0,-2.351395130E0
1.093675504E2,3.345208168E0,1.292258739E0,-3.421880722E0
1.094675504E2,9.837290645E-1,-2.280194998E0,-5.904188156E-1
1.095675504E2,2.916117191E0,1.797705412E0,-7.182614803E0
1.096675504E2,2.428585529E0,-5.539920330E-1,-1.876065731E0
1.097675504E2,-3.140856743E0,-3.254241705E0,1.061685562E0
1.098675504E2,-1.296617746E0,-1.546389461E0,-2.038085938E0
1.099675504E2,-8.694561720E-1,-2.033199787E0,-3.652009964E-1
1.100675504E2,1.778522015E0,-2.526732206E0,-2.034416199E-1
1.101675504E2,1.079390645E0,-4.070646286E0,1.390701294E0
1.102675504E2,1.972740531E0,-1.555277586E0,-1.364606857E0
1.103675504E2,6.440018415E-1,-1.124012232E0,-1.000344276E0
1.104675504E2,-7.914885879E-1,-1.728529692E0,-2.498171806E0
1.105675504E2,-2.406570911E0,-5.713820457E-2,-1.368813992E0
1.106675504E2,6.383926868E-1,1.428459167E0,-6.934885979E0
1.107675504E2,1.502250135E-1,-2.881765604E0,3.327083588E-2
1.108675504E2,-2.073480368E0,-2.471904993E0,1.553528786E0
1.109675504E2,-1.416133881E0,-2.196220875E0,1.331458092E0
1.110675504E2,-1.282791018E0,-4.661272049E0,4.207182884E0
1.111675504E2,-5.809195042E-1,-8.082201481E-1,-4.053306580E-2
1.112675504E2,2.493275404E0,-2.178886175E0,-3.398965836E0
1.113675504E2,4.426383972E-2,-3.607023716E0,2.223829269E0
1.114675504E2,-1.046571255E0,-1.818886995E0,-1.561224937E0
1.115675504E2,6.480655074E-1,-3.159995317E0,1.343307495E-1
1.116675504E2,-8.210429549E-2,-3.350391865E0,2.536555290E0
1.117675504E2,5.212809443E-1,-1.942297935E0,-1.212974548E0
1.118675504E2,-2.130452096E-1,-2.664860487E0,-4.858016968E-2
1.119675504E2,-2.717171013E-1,-4.635654926E0,3.405524254E0
1.120675504E2,1.297360182E0,-4.125151157E0,1.781846046E0
1.121675504E2,-3.533067107E-1,-3.789912224E0,1.474716187E0
1.122675504E2,-1.235739708E0,-4.866452694E0,4.699964523E0
1.123675504E2,-3.901981115E-1,-3.884995937E0,9.129619598E-1
1.124675504E2,1.747842550E0,-3.712530136E0,1.379220009E0
1.125675504E2,-1.689206958E0,-6.912709236E0,6.217847824E0
1.126675504E2,-4.848265648E-1,-3.206436634E-1,5.064487457E-2
1.127675504E2,6.947875023E-2,-3.246393204E0,4.734230042E-2
1.128675504E2,-5.785939693E-1,-2.697636843E0,5.998611450E-1
1.129675504E2,7.708995342E-1,1.216332912E-1,-1.515171051E0
1.130675504E2,-2.511808872E0,-6.113183975E0,5.581156731E0
1.131675504E2,-1.009644419E-1,-2.131584644E0,2.944183350E-2
1.132675504E2,1.032324553E0,-1.417629480E0,-2.311490059E0
1.133675504E2,-4.895109832E-1,-1.478486061E0,2.215109825E0
1.134675504E2,-2.940541208E-1,-4.650233269E0,2.565296173E0
1.135675504E2,-3.906533122E-1,-1.704342604E0,-5.717525482E-1
1.136675504E2,-1.503895044E0,-6.577851295E0,4.767328262E0
1.137675504E2,-9.519109130E-2,-2.984236240E0,4.144352913E0
1.138675504E2,-8.379843831E-1,-4.939236641E-1,-1.632010460E0
1.139675504E2,-3.170619488E0,-3.639163733E0,1.465484619E0
1.140675504E2,-1.948362827E0,-4.213342667E0,1.590611458E0
1.141675504E2,5.365315080E-1,5.515153408E-1,-4.954674244E0
1.142675504E2,-8.586617708E-1,-2.154481888E0,8.513536453E-1
1.143675504E2,1.918403059E-1,-3.065724373E0,8.439598083E-1
1.144675504E2,-9.215657115E-1,-4.007692814E0,1.096740723E0
1.145675504E2,-2.035257220E-1,-4.670475960E0,4.772758484E0
1.146675504E2,4.140941501E-1,-7.643547058E-1,3.467760086E-1
1.147675504E2,1.185054183E-1,-2.803181887E0,1.405211449E0
1.148675504E2,-6.424236298E-2,-3.556769848E0,3.652853012E0
1.149675504E2,5.416059494E-1,-3.898909807E0,1.158757210E0
1.150675504E2,-2.702758551E0,-7.280530930E-1,2.725738525E0
1.151675504E2,-4.904263616E-1,-9.036291838E-1,-6.913976669E-1
1.152675504E2,3.928838074E-1,-2.144840956E0,2.199420929E-1
1.153675504E2,-7.502186298E-1,-4.342833757E-1,6.223497391E-1
1.154675504E2,-7.743662596E-1,-3.152498484E0,1.754102707E-1
1.155675504E2,6.711244583E-1,-1.926727295E-1,-1.181282997E0
1.156675504E2,-2.118618488E0,-1.666533232E0,-4.940023422E-1
1.157675504E2,-1.630245686E0,-1.331517100E0,9.557132721E-1
1.158675504E2,-1.861378551E0,-2.277499437E0,3.470755577E0
1.159675504E2,-1.036145687E-1,-2.619149685E0,1.281711578E0
1.160675504E2,1.166378260E0,-1.960583568E0,4.059505463E-2
1.161675504E2,4.124271393E0,-4.731511116E0,3.941175461E0
1.162675504E2,3.586032867E0,-1.360864520E0,-1.189093590E0
1.163675504E2,2.123362064E0,-1.758200049E0,1.196303368E0
1.164675504E2,2.066526413E0,-4.169182777E0,2.618701935E0
1.165675504E2,6.709921360E-1,-4.456908703E0,3.533851624E0
1.166675504E2,2.235318661E0,-2.045949697E0,7.800292969E-2
1.167675504E2,3.022437096E0,-2.302782059E0,1.399353981E0
1.168675504E2,4.812530994E0,-2.468008518E0,-1.559595108E0
1.169675504E2,2.728057623E0,-1.141644597E0,-6.213474274E-1
1.170675504E2,1.067304850E0,-1.705590129E0,1.520176888E0
1.171675504E2,3.221189499E0,4.382370710E-1,-1.929425240E0
1.172675504E2,1.662743568E0,-6.621643543E0,5.747588158E0
1.173675504E2,2.406069994E0,-6.982944608E-1,-2.023158073E0
1.174675504E2,6.396715641E-1,-1.734907627E0,2.867141724E0
1.175675504E2,-2.718870640E-1,-1.800421596E0,1.308660221E1
1.176675504E2,-1.744662285E0,-1.270626926E1,1.215490341E1
1.177675504E2,-3.415576220E-1,6.449859142E0,-4.178668976E0
1.178675504E2,1.959137678E0,-6.218296051E0,1.646401405E0
1.179675504E2,7.338801026E-1,4.642095566E0,-5.554520607E0
1.180675504E2,-1.180712104E0,3.083155155E-1,1.000141144E0
1.181675504E2,-1.777331233E0,1.003584623E0,-4.066439152E0
1.182675504E2,-9.561175346E0,-7.905180931E0,5.899003983E0
1.183675504E2,-4.987931848E-1,6.018589020E0,-1.247184753E0
1.184675504E2,-3.109558821E0,-4.683346748E0,2.402780533E0
1.185675504E2,2.650982141E0,2.689647198E0,-4.694422245E0
1.186675504E2,-9.216462135E0,-1.228371525E1,9.985146523E0
1.187675504E2,-4.146090508E0,8.940955162E0,-1.125455475E1
1.188675504E2,-4.823369503E0,1.837948799E0,1.411665916E0
1.189675504E2,-1.191588402E0,-1.160061264E1,9.548274994E0
1.190675504E2,2.808508396E0,6.458830833E-1,-2.072428703E0
1.191675504E2,2.607271433E0,-9.595106125E0,8.835122108E0
1.192675504E2,-3.354907751E0,-1.029731750E0,-2.277446270E0
1.193675504E2,-6.675599813E-1,-8.882902145E0,5.871419907E0
1.194675504E2,1.888492584E0,2.391774654E0,-5.651101589E0
1.195675504E2,-4.933576584E-1,3.631894588E0,-5.030663490E0
1.196675504E2,-4.092358589E0,8.760641098E0,-1.073655987E1
1.197675504E2,-2.153985500E0,2.120176792E0,-2.627016544E0
1.198675504E2,-8.069680929E-1,-4.547185421E0,4.315818787E0
1.199675504E2,6.241008639E-2,1.629012346E0,-5.259581566E0
1.200675504E2,-8.976473212E-1,-4.639027596E0,4.841995239E-2
1.201675504E2,1.964297771E0,8.034801483E-2,-2.846255779E0
1.202675504E2,3.242467046E-1,-6.035512924E0,4.650199890E0
1.203675504E2,-5.653251410E-1,-4.660709381E0,2.298689842E0
1.204675504E2,5.933471322E-1,-1.819383144E0,1.104345322E0
1.205675504E2,1.431373119E0,-2.769916058E0,-1.102788925E0
1.206675504E2,-5.922479033E-1,-6.437927723E0,8.369084358E0
1.207675504E2,-1.828101635E0,1.013503075E0,-1.308870316E-1
1.208675504E2,2.091003895E0,6.505880356E-1,-4.218189716E0
1.209675504E2,3.894385397E-1,1.061627984E0,-2.596859932E0
1.210675504E2,-1.668083191E0,-2.507135391E0,3.520844460E0
1.211675504E2,-8.754354715E-1,-4.282982349E0,5.430444717E0
1.212675504E2,1.141811609E-1,-2.014908791E0,-1.401578903E0
1.213675504E2,2.235245705E-2,-2.183290482E0,-2.485256195E-1
1.214675504E2,1.717185736E0,-6.068360329E0,3.881112099E0
1.215675504E2,-1.490145206E0,9.989917278E-1,-1.718629837E0
1.216675504E2,-2.386011600E0,-8.914667130E0,8.140692711E0
1.217675504E2,-1.992372155E0,-1.975647211E-1,-1.741674423E0
1.218675504E2,6.044042110E-1,4.311474562E-1,-6.166658401E-1
1.219675504E2,8.626751900E-1,-1.318060398E0,-1.161465645E0
1.220675504E2,1.557375908E0,-1.549123287E0,-1.064381599E0
1.221675504E2,-1.368778944E0,-1.319883943E0,-1.661698341E0
1.222675504E2,-1.161173224E0,5.868238926E0,-6.124854088E0
1.223675504E2,-4.060365677E0,-2.438271046E-1,-1.332850456E0
1.224675504E2,1.333759725E-1,-6.073002338E0,4.720691681E0
1.225675504E2,-1.834491014E0,-4.499748945E-1,-2.161933899E0
1.226675504E2,-6.576018333E-1,2.807874441E0,-9.649047852E-1
1.227675504E2,1.746076941E0,-9.984397292E-1,-8.369445801E-3
1.228675504E2,-4.167194366E-1,-2.837925434E0,2.070934296E0
1.229675504E2,1.058445930E0,-5.206384182E0,3.667041779E0
1.230675504E2,4.174961746E-1,3.125352144E0,-1.890627861E0
1.231675504E2,-8.609384298E-2,-5.861699581E-2,-3.257637024E0
1.232675504E2,-1.245547056E0,-3.584492683E0,3.378739357E0
1.233675504E2,-1.203626990E-1,-1.574474335E0,-3.030877590E0
1.234675504E2,-1.702505350E-1,6.745071411E-1,-3.469361305E0
1.235675504E2,5.052511096E-1,-3.125106812E0,-5.589704514E-1
1.236675504E2,-1.569435358E0,1.225435495E0,-1.358025551E0
1.237675504E2,1.553857327E-1,-3.841925263E-1,4.835367203E-1
1.238675504E2,-4.109760523E-1,-1.005417109E-1,-3.538582802E0
1.239675504E2,-1.536182165E0,-7.169990063E0,7.277943611E0
1.240675504E2,1.652917147E0,-2.338821173E0,-4.569931030E-1
1.241675504E2,2.760163248E-1,-1.573343158E0,-1.582525253E0
1.242675504E2,-1.193261623E0,-4.262441635E0,3.403849602E0
1.243675504E2,-9.993703961E-1,-3.202769279E0,1.427352905E0
1.244675504E2,1.082436800E0,1.440252423E0,-1.550890923E0
1.245675504E2,3.218449950E-1,-2.180467129E0,6.585617065E-1
1.246675504E2,2.840468884E-1,1.344975948E0,-6.398163795E0
1.247675504E2,-8.636931181E-1,-2.563173532E0,3.513669968E0
1.248675504E2,-2.154054046E-1,5.312745571E-1,-4.058880329E0
1.249675504E2,-3.433440924E-1,5.963141918E-1,-2.098568916E0
1.250675504E2,1.047549129E0,-3.148834229E0,2.505508423E0
1.251675504E2,-1.895103097E0,-2.205896378E0,-1.696333885E0
1.252675504E2,-2.019297600E0,-1.100298405E0,1.983878136E0
1.253675504E2,3.859668672E-1,-2.306917906E-1,-2.329241276E0
1.254675504E2,-7.365035415E-1,-1.193218231E-1,-2.969020367E0
1.255675504E2,7.533037663E-1,1.313906908E-1,6.321525574E-2
1.256675504E2,5.143424869E-2,4.207302332E-1,-2.958458424E0
1.257675504E2,3.007118225E0,-1.357306480E0,-1.395720482E0
1.258675504E2,-2.057522535E-1,2.121750832E0,-2.137400627E0
1.259675504E2,-4.127333164E-1,1.901997805E0,-6.810684204E0
1.260675504E2,6.247669458E-1,3.504392862E0,-3.019894600E0
1.261675504E2,-1.066155434E0,-9.345868111E0,7.001705170E0
1.262675504E2,1.689188242E0,-3.231076241E0,2.861476898E0
1.263675504E2,-8.279638886E-1,-2.359844923E0,1.543357849E0
1.264675504E2,-2.142587185E0,-2.470986843E0,2.243147850E0
1.265675504E2,6.635150313E-2,-9.484694004E-1,1.341470718E0
1.266675504E2,1.004707098E0,3.304457903E0,-4.347528458E0
1.267675504E2,1.034272075E0,-2.246097565E0,2.644883156E0
1.268675504E2,1.070223093E0,-2.142583847E0,2.667901039E0
1.269675504E2,7.353111506E-1,-1.842907667E0,-3.314619064E-1
1.270675504E2,-1.591564417E-1,-8.228361607E-1,-2.041709900E0
1.271675504E2,-4.656231403E-2,3.249752045E0,-2.302341461E0
1.272675504E2,-4.407794476E-1,1.385956645E0,-8.496351242E-1
1.273675504E2,1.963448524E-2,4.613549709E-1,-3.531949520E0
1.274675504E2,1.484027267E0,4.346193075E-1,1.755813599E0
1.275675504E2,5.844191313E-1,-1.350947499E0,-8.319473267E-2
1.276675504E2,-1.206256866E0,-2.256596088E0,4.284078598E0
1.277675504E2,-1.279825687E0,-1.563026071E0,7.654933929E-1
1.278675504E2,-1.571506023E0,-5.175198555E0,2.722367287E0
1.279675504E2,-1.190619469E-1,-1.420089722E0,8.901596069E-3
1.280675504E2,1.769768596E-1,-1.006124139E0,1.470937729E-1
1.281675504E2,1.416539431E0,1.981030583E0,-3.756316185E0
1.282675504E2,1.514173746E0,-1.600927353E0,6.444406509E-1
1.283675504E2,1.074911118E0,-2.569369674E-1,-1.740444183E0
1.284675504E2,9.031254053E-1,-9.800826311E-1,1.187857628E0
1.285675504E2,-4.786034226E-1,-3.327535391E-1,-1.194734573E-1
1.286675504E2,-5.269075036E-1,3.390384912E-1,9.559793472E-1
1.287675504E2,-2.297392368E0,2.319586277E-1,1.541690826E0
1.288675504E2,-2.100280285E0,-7.548544407E-1,4.071140289E-1
1.289675504E2,-1.353722334E0,-2.621498585E0,3.073309898E0
1.290675504E2,1.763890266E0,1.957508445E0,-2.482653618E0
1.291675504E2,4.169333875E-1,-9.069788456E-1,3.385688782E0
1.292675504E2,1.853134155E0,-3.116722822E0,-1.262067795E0
1.293675504E2,-1.743104935E0,-1.279473066E0,-2.344530106E0
1.294675504E2,7.351095080E-1,-2.400057316E0,1.690134048E0
1.295675504E2,2.393273115E-1,-3.960846663E-1,4.024219513E0
1.296675504E2,-1.229232669E0,5.053985119E-2,1.305367470E0
1.297675504E2,-3.862720728E-1,-1.136887074E0,-1.318250656E0
1.298675504E2,-3.747249842E-1,-2.934148788E0,3.023945808E0
1.299675504E2,-7.824068069E-1,-1.162076116E0,-1.360871315E0
1.300675504E2,-2.321403027E0,-7.520620823E-1,-4.865064621E-1
1.301675504E2,1.664934158E-1,-1.436419845E0,-7.169437408E-2
1.302675504E2,1.021188974E0,-7.852547765E-1,2.566389084E0
1.303675504E2,7.422751188E-2,1.514910936E0,-2.942576885E0
1.304675504E2,1.506099701E-1,-6.519131064E-1,1.944618225E0
1.305675504E2,-7.895383239E-1,-2.554204941E0,4.617424011E-1
1.306675504E2,5.106080174E-1,-1.920745730E0,2.960357666E-1
1.307675504E2,2.349584579E0,1.873288512E0,-3.061755657E0
1.308675504E2,1.423759937E0,-2.708195686E0,5.402580261E0
1.309675504E2,7.451255322E-1,-1.882383585E0,5.273049355E0
1.310675504E2,5.412002802E-1,-1.095637083E0,-3.451887131E0
1.311675504E2,-1.884568930E-1,-2.284107685E0,-5.700626373E-1
1.312675504E2,1.254635453E0,-5.650225878E-1,1.302101135E0
1.313675504E2,-1.941358685E0,2.496076584E0,-5.020375252E0
1.314675504E2,-4.143316746E0,-7.523127794E-1,9.487962723E-1
1.315675504E2,-1.305222511E0,-2.383261681E0,1.585011482E0
1.316675504E2,2.344000816E0,4.857051373E0,-9.016165733E0
1.317675504E2,4.131234288E-1,7.994310856E-1,-1.856601715E0
1.318675504E2,-1.117423654E0,-1.918588638E0,1.073160172E-1
1.319675504E2,2.773536444E-1,-4.596939087E-1,-1.769930363E0
1.320675504E2,5.252259970E-1,-1.492772341E0,4.356475830E0
1.321675504E2,-2.934415340E-1,3.193110466E0,-5.018253803E0
1.322675504E2,5.498939753E-1,-2.159937859E0,-1.666512489E0
1.323675504E2,3.147844076E-1,-2.729484320E0,7.588758469E-1
1.324675504E2,1.587236404E0,2.375973225E0,-4.037314415E0
1.325675504E2,-1.215668797E0,1.832438469E0,-3.269201279E0
1.326675504E2,-1.067470312E0,-5.822269320E-1,-9.877004623E-1
1.327675504E2,-9.065017700E-1,2.509354591E0,-6.496545792E0
1.328675504E2,-3.026510715E0,1.592253804E0,-4.144604683E0
1.329675504E2,-7.286292911E-1,-1.976493955E0,1.882457733E0
1.330675504E2,-1.965140820E0,-1.765578985E0,7.475986481E-1
1.331675504E2,-2.863583326E0,5.079524517E0,-3.040593147E0
1.332675504E2,1.210235596E0,-8.529859781E-1,-1.458525658E0
1.333675504E2,1.013015985E0,-4.224539280E0,3.632549286E0
1.334675504E2,4.830771685E-2,-1.085735321E0,9.149208069E-1
1.335675504E2,-1.098659277E0,-2.269300461E0,4.280000687E0
1.336675504E2,1.041957259E0,7.629315853E-1,-1.754055500E0
1.337675504E2,8.417844772E-1,1.693894148E0,-4.002477646E0
1.338675504E2,-4.148883820E-1,-4.706642628E0,3.675265312E0
1.339675504E2,4.301204085E-1,-5.618895054E0,3.726874352E0
1.340675504E2,1.216159463E0,-2.133418798E0,8.645219803E-1
1.341675504E2,-6.493897438E-1,1.470158100E0,-1.430711746E0
1.342675504E2,-2.466509104E0,2.714073658E0,-3.305931568E0
1.343675504E2,-2.312820554E-1,8.010288477E-1,-1.486194611E0
1.344675504E2,1.796081781E0,-4.787237048E-1,-2.526991844E0
1.345675504E2,-2.609893084E-1,-2.373866081E0,3.759270668E0
1.346675504E2,8.234536648E-1,-4.387963772E0,2.679650307E0
1.347675504E2,4.912384748E-1,7.790176868E-1,-1.060688972E0
1.348675504E2,1.965948343E-1,5.559614897E-1,-1.892099380E-1
1.349675504E2,1.183571696E0,3.146295071E0,-6.496684551E0
1.350675504E2,-7.675588131E-1,-2.543778658E0,-6.778535843E-1
1.351675504E2,-5.134353638E-1,-4.315334320E0,3.045068741E0
1.352675504E2,-2.170183659E0,-2.449164391E-1,-7.325105667E-1
1.353675504E2,-3.443463802E0,3.568455458E0,-4.720639229E0
1.354675504E2,-2.613800526E0,-9.742652774E-1,1.721944809E0
1.355675504E2,6.792250276E-1,-2.005466938E0,1.225693703E0
1.356675504E2,-2.021888256E0,-4.334157705E-1,9.309635162E-1
1.357675504E2,-8.694949746E-1,-1.226055741E0,1.219286919E0
1.358675504E2,1.119012952E0,1.338309169E0,-2.916800499E0
1.359675504E2,3.850801468E0,2.204437256E0,-4.724133968E0
1.360675504E2,-1.379272223E0,-2.299401283E0,2.507919312E0
1.361675504E2,-2.988343000E0,-2.127512693E0,4.940966606E0
1.362675504E2,-1.038200736E0,-3.526763439E0,3.507808685E0
1.363675504E2,2.662351727E-1,6.500000954E-1,7.723846436E-1
1.364675504E2,-2.841133118E0,-1.194434643E0,3.977159500E0
1.365675504E2,-4.292383194E-1,2.422595024E-1,-1.248414993E0
1.366675504E2,-1.484761477E0,3.386747837E-2,-1.795083046E0
1.367675504E2,-2.408810258E-1,-1.265727282E-1,1.827363014E0
1.368675504E2,9.111081362E-1,-2.089806795E0,1.445135117E0
1.369675504E2,-2.673889995E-1,-4.214251041E-2,-3.475211143E0
1.370675504E2,1.084788918E0,1.025738835E0,-1.368082047E0
1.371675504E2,8.767009377E-1,-7.196651697E-1,1.524200439E-1
1.372675504E2,1.110121131E0,-1.558041811E0,-5.065889359E-1
1.373675504E2,1.285362482E0,-1.042649269E0,2.462130547E0
1.374675504E2,-8.246427774E-2,2.371155024E-1,-1.573311806E0
1.375675504E2,-6.761028171E-1,1.691520214E-1,3.409177780E0
1.376675504E2,1.445962548E0,3.915107250E-2,-5.366439819E-1
1.377675504E2,1.755076408E0,-2.884503841E0,2.144432068E-2
1.378675504E2,6.883482337E-1,-5.392006874E0,4.441802025E0
1.379675504E2,1.043488145E0,-4.601710796E0,3.342004776E0
1.380675504E2,-1.482810378E0,2.565885067E0,-3.306240559E0
1.381675504E2,-1.243490696E0,2.446257591E0,-2.919035912E0
1.382675504E2,-8.553607464E-1,-3.330399990E0,5.891942978E0
1.383675504E2,9.993748069E-1,-2.531936646E0,1.481498718E0
1.384675504E2,1.116035581E0,-2.761766911E0,1.504889488E0
1.385675504E2,9.264822006E-1,-1.051814079E0,-3.949813843E-1
1.386675504E2,-3.860560656E-1,-4.891067505E0,5.713032722E0
1.387675504E2,5.981811881E-1,-2.491566181E0,4.079208374E0
1.388675504E2,-4.288856983E-1,-3.109484673E0,2.269794464E0
1.389675504E2,-1.112200141E0,-1.640971422E0,3.005731583E0
1.390675504E2,4.371880293E-1,-1.099860549E0,2.677393913E0
1.391675504E2,1.171277761E0,-2.152296066E0,2.576005936E0
1.392675504E2,2.158005714E0,2.399867773E-1,-5.972375870E-1
1.393675504E2,1.079705000E0,-1.428501964E0,1.169681549E0
1.394675504E2,-7.023198605E-1,-2.983600140E0,2.135551453E0
1.395675504E2,6.337916851E-2,1.902409792E-1,-8.965797424E-1
1.396675504E2,-1.200288296E0,4.553664923E-1,2.192974091E-1
1.397675504E2,3.290543795E0,5.537626743E-1,-1.488961220E0
1.398675504E2,1.319795728E0,2.899399042E0,-5.117419720E0
1.399675504E2,-6.260701418E-1,-1.470975161E0,-6.703100204E-1
1.400675504E2,1.605462551E0,-3.748851299E0,5.135720253E0
1.401675504E2,3.689583302E0,2.316337824E-1,7.209758759E-1
1.402675504E2,3.592100859E0,2.991811752E0,-3.869002819E0
1.403675504E2,1.906955719E0,3.670699596E0,-3.805213928E0
1.404675504E2,2.335468531E-1,-1.991590142E0,9.431257248E-1
1.405675504E2,1.287644506E0,-8.597420454E-1,1.107071877E0
1.406675504E2,-1.213517666E0,1.288243294E0,-4.089021683E-1
1.407675504E2,-2.187979937E0,-5.178947926E0,7.840005875E0
1.408675504E2,-1.223742962E0,-4.882857800E0,5.192516327E0
1.409675504E2,-1.536756158E-1,-2.564805269E0,4.842850685E0
1.410675504E2,-5.200365186E-1,-3.535825014E-1,-7.944736481E-1
1.411675504E2,6.925880909E-1,1.144584537E0,-3.871535301E0
1.412675504E2,5.133379698E-1,3.295357704E0,-4.894210339E0
1.413675504E2,5.329771042E-1,-4.200049877E0,1.584385872E0
1.414675504E2,-3.054218292E0,1.470018625E-1,-3.571246147E0
1.415675504E2,-1.945273042E0,-6.327949762E-1,2.053771973E0
1.416675504E2,-1.318061352E0,-1.879993320E0,2.541093826E0
1.417675504E2,1.262986422E0,-3.979411602E0,2.453368187E0
1.418675504E2,-1.454453766E-1,-6.560941219E0,1.308134556E1
1.419675504E2,-2.684927940E0,-2.594559669E0,1.313366890E0
1.420675504E2,-4.235146046E0,-2.074703217E0,6.773529053E-1
1.421675504E2,-4.141184807E0,-3.722512722E0,4.559805870E0
1.422675504E2,-6.942215919E0,-1.124690056E0,2.620639801E0
1.423675504E2,5.839916229E0,-1.106965637E1,1.318324471E1
1.424675504E2,-1.119719982E0,-6.791128159E0,4.023898125E0
1.425675504E2,-7.859916687E0,2.953223228E0,2.429691315E0
1.426675504E2,-7.948393822E-1,-1.821376991E1,1.501369762E1
1.427675504E2,-3.506304026E-1,-7.003188133E0,4.339919090E0
1.428675504E2,-1.553122997E-1,2.032614946E0,-2.925926208E0
1.429675504E2,-7.593099594E0,-6.028797150E0,8.686258316E0
1.430675504E2,4.726967812E-1,1.974037290E-1,4.300451279E-1
1.431675504E2,-3.079046011E0,3.902999163E0,-2.949810028E0
1.432675504E2,3.104835272E0,1.833519936E0,-1.000166893E0
1.433675504E2,-1.769680977E-1,-6.585656166E0,5.783400536E0
1.434675504E2,-1.391729236E0,-4.457385063E0,5.804238319E0
1.435675504E2,-2.435098410E0,-8.128302574E0,9.791295052E0
1.436675504E2,-2.944672108E0,8.305811882E-2,5.071735382E-1
1.437675504E2,-1.849337101E0,-3.740025043E0,3.630084991E0
1.438675504E2,-4.784660339E0,1.917847872E0,6.600236893E-1
1.439675504E2,-3.188549519E0,-6.301072240E-1,2.713382721E0
1.440675504E2,1.461926937E0,3.200805426E0,-3.765741348E0
1.441675504E2,3.602739096E0,1.339469194E0,-5.351346493E0
1.442675504E2,3.316904306E0,-2.456385612E0,2.640586853E0
1.443675504E2,1.869793415E0,-9.853310585E0,1.146096420E1
1.444675504E2,-7.874193192E-1,-7.372822285E0,3.572277069E0
1.445675504E2,1.805886507E0,-2.325802326E0,-2.601308823E-1
1.446675504E2,1.218875885E0,-1.093203425E0,8.000659943E-1
1.447675504E2,-8.217401505E-1,6.879559755E-1,-4.222183228E-1
1.448675504E2,2.969667673E0,-1.561418414E0,-4.633712769E-2
1.449675504E2,3.771554947E0,-1.136333227E0,9.670886993E-1
1.450675504E2,3.406240940E-1,-1.290866852E0,6.306419373E-1
1.451675504E2,2.345981836E0,-2.051059246E0,2.586358070E0
1.452675504E2,1.464922667E0,-2.278064728E0,2.521793365E0
1.453675504E2,1.070378542E0,-1.114279866E0,2.091526031E0
1.454675504E2,-4.757020473E-1,-2.599230766E0,2.446666718E0
1.455675504E2,1.743925571E0,-2.066040039E-2,3.210048676E-1
1.456675504E2,1.713696957E0,2.317181826E-1,-7.675361633E-2
1.457675504E2,5.697832108E-1,-5.591936588E0,5.397687912E0
1.458675504E2,1.485342026E0,4.578622580E-1,-9.606018066E-1
1.459675504E2,1.020886540E0,9.325623512E-3,-2.784614563E-1
1.460675504E2,-3.942788839E-1,-1.708000183E0,2.317171097E-1
1.461675504E2,-9.182476997E-2,-1.659789801E0,1.793188095E0
1.462675504E2,5.601590872E-1,-4.739991188E0,5.273937225E0
1.463675504E2,-7.634984851E-1,-1.544237137E0,1.133519173E0
1.464675504E2,-3.509508371E-1,1.581914306E0,-1.952105522E0
1.465675504E2,4.666399956E-1,3.527398348E0,-2.688345909E0
1.466675504E2,9.387874603E-1,-3.577269554E0,1.224459648E0
1.467675504E2,-1.374499917E0,2.272620678E0,-1.882042885E0
1.468675504E2,-1.863290668E0,-2.495740891E0,1.375113487E0
1.469675504E2,4.374408722E-2,-2.538467884E0,3.023078918E0
1.470675504E2,9.159135818E-1,-6.473426342E0,5.402596474E0
1.471675504E2,-4.340755939E-2,-3.857680798E0,7.711362839E-1
1.472675504E2,-1.848529577E-1,-6.168909073E-1,6.222362518E-1
1.473675504E2,-1.383199453E0,-3.098842144E0,3.083836555E0
1.474675504E2,1.280953884E0,1.808752537E0,-2.541151047E0
1.475675504E2,-2.408947229E0,-1.263639569E0,8.804903030E-1
1.476675504E2,3.212779999E0,-1.709376812E0,-1.647233009E0
1.477675504E2,4.142163992E-1,-3.766800880E0,3.729871750E0
1.478675504E2,1.634116054E0,-1.861160994E-1,-1.729254246E0
1.479675504E2,-1.018970013E-1,-2.334089041E0,-6.061162949E-1
1.480675504E2,8.859464526E-1,5.788898468E-1,-1.060633659E0
1.481675504E2,6.012039185E-1,-4.208294153E-1,-9.867763519E-1
1.482675504E2,6.684712768E-1,-1.255215168E0,-2.936029434E-1
1.483675504E2,1.081931591E-1,-1.837096095E0,1.472658157E0
1.484675504E2,2.248763084E0,3.313042879E0,-4.444180965E0
1.485675504E2,1.007704496E0,2.763782263E0,-2.634013653E0
1.486675504E2,1.124327898E0,-8.089086413E-1,8.930625916E-1
1.487675504E2,1.572830677E-1,-4.591311455E0,4.780824661E0
1.488675504E2,-6.348425150E-1,-3.944700956E-1,-5.177478790E-1
1.489675504E2,3.038189411E-1,1.403272510E0,-1.676322937E0
1.490675504E2,4.064130783E-1,-2.930712104E-1,-1.909255981E-2
1.491675504E2,-2.141501904E-1,-6.062915802E0,7.512959480E0
1.492675504E2,1.423315287E0,1.880644917E0,-3.358819485E0
1.493675504E2,1.907308221E0,-8.395628929E-1,-9.756669998E-1
1.494675504E2,-1.094252348E0,-2.977560520E0,2.828105927E0
1.495675504E2,1.237056255E-1,-1.156539559E0,3.303976059E-1
1.496675504E2,4.225394130E-1,-6.550943851E-2,6.092071533E-2
1.497675504E2,1.901288033E0,2.919901371E0,-2.067163467E0
1.498675504E2,1.066335082E0,6.026779413E-1,-8.306121826E-1
1.499675504E2,-8.740929961E-1,-1.337415099E0,2.249741554E0
1.500675504E2,-2.287905216E0,-2.602875948E0,1.309795380E0
1.501675504E2,-1.189005017E0,9.510910511E-2,-1.680808067E0
1.502675504E2,-2.475280166E-1,3.709630966E-1,-1.348655701E0
1.503675504E2,-1.525239348E0,6.310839057E-1,-2.014268875E0
1.504675504E2,6.507087946E-1,-8.538028598E-1,1.385092735E0
1.505675504E2,5.404520035E-1,-1.593503475E0,8.664703369E-1
1.506675504E2,1.972322464E-1,-1.436504841E0,6.996822357E-1
1.507675504E2,4.128177166E-1,1.186978102E0,-1.554378510E0
1.508675504E2,-4.590950012E-1,-1.094868183E-1,-8.963146210E-1
1.509675504E2,-2.104210258E-1,8.717209101E-1,-2.048041821E0
1.510675504E2,-2.448455334E0,7.379937172E-2,2.660570145E-1
1.511675504E2,1.028577566E0,9.258081913E-1,-1.612868309E0
1.512675504E2,-6.968157291E-1,-2.429476738E0,2.219998360E0
1.513675504E2,2.010311365E0,1.397081375E0,-2.394685745E0
1.514675504E2,1.285912275E0,-1.479815006E0,-2.936555862E0
1.515675504E2,-1.862747788E0,2.217862129E0,-3.686480045E0
1.516675504E2,-1.532231569E0,-6.845951080E-3,2.248363495E-1
1.517675504E2,7.138717175E-1,-2.752200127E0,3.337336540E0
1.518675504E2,1.746108890E0,-2.008019209E0,2.597914696E0
1.519675504E2,6.818232536E-1,9.873200655E-1,-1.849257469E0
1.520675504E2,2.433048487E0,9.044605494E-1,-3.020061970E0
1.521675504E2,-3.783783913E-1,-2.262977123E0,2.288754463E0
1.522675504E2,-1.501160502E0,-2.533985376E0,2.491883278E0
1.523675504E2,-1.070268989E0,-3.389803410E0,4.017299652E0
1.524675504E2,-5.834782124E-2,-3.508275270E0,2.540019035E0
1.525675504E2,-4.654778242E-1,9.482671022E-1,-2.836029053E0
1.526675504E2,-5.791092515E-1,-3.090218902E-1,-1.394606590E0
1.527675504E2,2.351340652E-1,1.157511234E0,-1.707812309E0
1.528675504E2,-3.779752254E-1,-4.696145058E-1,1.348423004E0
1.529675504E2,-6.932020187E-2,-2.083431005E0,1.526403427E0
1.530675504E2,7.113114595E-1,-2.342526436E0,1.190296173E0
1.531675504E2,1.704683661E0,1.191434145E0,-1.072994232E0
1.532675504E2,2.472170830E0,9.935168624E-1,-1.262227058E0
1.533675504E2,5.817165375E-1,-2.302556515E0,8.068084717E-1
1.534675504E2,-1.587701797E0,-3.615761399E-1,1.479640007E0
1.535675504E2,1.223631740E0,-6.527514458E-1,-2.654390335E-1
1.536675504E2,2.151416540E-1,-2.700147629E0,2.683808327E0
1.537675504E2,-1.254578352E0,2.559119463E-2,-2.024038315E0
1.538675504E2,-6.165706515E-1,1.601794720E0,-2.967268944E0
1.539675504E2,2.236049771E-1,-1.088471413E0,1.090559006E0
1.540675504E2,1.772502184E0,-1.141632438E0,1.138064384E0
1.541675504E2,1.123116136E0,2.295213938E-1,-1.113984108E0
1.542675504E2,-3.449654579E-1,-8.505924344E-1,1.949798584E0
1.543675504E2,-2.092674971E0,-1.386994123E0,4.767179489E-1
1.544675504E2,9.353871346E-1,1.138307452E0,-2.450938702E0
1.545675504E2,2.085934877E-1,2.940872669E0,-3.773495674E0
1.546675504E2,4.821102142E0,4.471543312E0,-3.896095276E0
1.547675504E2,1.556358814E0,6.967306137E-2,3.404206276E0
1.548675504E2,2.168549538E0,-2.217379093E0,1.176532745E0
1.549675504E2,-5.914609432E0,-3.348375559E0,-3.900623322E-1
1.550675504E2,-2.667913437E0,5.451157689E-1,2.663475990E0
1.551675504E2,1.447904110E-2,-1.344565511E0,2.391761780E0
1.552675504E2,3.646469116E-1,-1.592179894E0,2.068472862E0
1.553675504E2,-2.230089664E0,5.520567894E0,-6.064762115E0
1.554675504E2,4.312833786E0,-1.088481069E0,-8.854541779E-1
1.555675504E2,5.547787547E-1,-7.745028734E-1,3.844966888E-1
1.556675504E2,-3.786948204E0,-7.600186467E-1,2.552066803E0
1.557675504E2,-1.740725040E0,6.171914339E-1,1.374597549E0
1.558675504E2,1.413331389E0,2.087477207E0,-1.655433655E0
1.559675504E2,3.999402285E0,3.256153584E0,-1.323382568E1
1.560675504E2,1.023209095E-2,3.737013817E0,-2.984795570E0
1.561675504E2,-9.316400886E-1,-2.255877018E0,4.807250023E0
1.562675504E2,-3.231999874E-1,-1.611500263E0,2.296724319E0
1.563675504E2,5.902297974E0,7.084546089E-1,-6.099446297E0
1.564675504E2,-8.788019419E-1,2.800763130E0,-7.712831497E-1
1.565675504E2,4.551482201E-2,-4.593075275E0,8.852044106E0
1.566675504E2,-3.319946527E-1,-6.093610764E0,6.545740128E0
1.567675504E2,-3.356497526E0,-3.688961029E0,3.749134064E0
1.568675504E2,1.914863944E0,2.131986141E0,-1.445876122E0
1.569675504E2,-1.031695724E0,-1.520818472E-1,-3.348039627E0
1.570675504E2,-1.533135772E0,-1.089296341E0,-3.551006317E-1
1.571675504E2,6.480453014E0,2.307932854E0,-6.238526344E0
1.572675504E2,1.020969152E0,-4.562292099E-1,-2.998864174E0
1.573675504E2,-7.402143955E0,1.256426573E-1,3.600049019E0
1.574675504E2,7.676163912E-1,5.753022194E0,-8.667779922E0
1.575675504E2,-2.397286892E0,1.558376551E-1,-2.058594227E0
1.576675504E2,2.439933062E0,3.810878277E0,-5.226220608E0
1.577675504E2,-9.510624886E0,-2.192567348E0,2.340341568E0
1.578675504E2,5.172460079E0,-1.036251926E1,8.159342766E0
1.579675504E2,2.533923388E-1,5.661973476E0,-5.360636711E0
1.580675504E2,8.018874526E-1,1.165254784E1,-1.663744736E1
1.581675504E2,-8.793959618E0,9.715039253E0,-6.491302490E0
1.582675504E2,8.648586869E-1,1.889169121E1,-5.986895561E0
1.583675504E2,3.214796543E0,-8.716986656E0,8.284150124E0
1.584675504E2,1.765570164E0,-2.185345650E0,2.985929489E0
1.585675504E2,-1.836203337E-1,6.750215292E-1,2.722053528E0
1.586675504E2,4.984856844E-1,-3.537287951E0,3.479135513E0
1.587675504E2,-3.704527617E-1,1.083732963E0,-4.040991783E0
1.588675504E2,2.326939106E0,5.928119183E0,-7.741359711E0
1.589675504E2,2.638816833E0,4.558398724E0,-3.323523521E0
1.590675504E2,-7.106769681E-1,2.639870644E-1,-2.831141949E0
1.591675504E2,3.079096794E0,5.154272079E0,-6.055517673E0
1.592675504E2,1.526343942E0,1.700958133E0,-1.122617722E0
1.593675504E2,-2.177344084E0,-4.761746407E0,3.214796066E0
1.594675504E2,-3.329972327E-1,3.428827524E0,-2.836818218E0
1.595675504E2,-8.565129638E-1,-7.084244728E0,1.279876709E1
1.596675504E2,-2.313365698E0,-5.209674835E0,1.342881203E0
1.597675504E2,4.119537830E0,-4.221254826E0,4.688783646E0
1.598675504E2,1.494662046E0,3.879765749E0,-1.907654285E0
1.599675504E2,1.705579758E0,-3.289358377E0,-1.222740173E0
1.600675504E2,-3.391182661E0,2.457489967E-1,2.518808365E0
1.601675504E2,3.873589039E-1,-8.500241041E-1,1.363397598E0
1.602675504E2,-2.017246485E0,-2.529181480E0,3.342935562E0
1.603675504E2,5.519184113E0,2.958640099E0,-8.307676315E0
1.604675504E2,9.118248820E-1,4.756739616E0,-4.647176743E0
1.605675504E2,1.472427845E0,-1.086672783E0,-3.668944359E0
1.606675504E2,-1.265289545E0,1.958508492E0,-7.900611401E0
1.607675504E2,-1.851384521E0,7.336270809E0,-6.319760323E0
1.608675504E2,7.238531113E-1,-1.655315876E0,7.675838470E-1
1.609675504E2,-1.959568262E0,-5.780535698E0,3.137700081E0
1.610675504E2,-4.148702621E0,-1.094477177E-1,-3.993513584E0
1.611675504E2,-3.348218203E0,-5.766000748E0,5.730005264E0
1.612675504E2,3.302857876E-1,3.537209511E0,-7.438824654E0
1.613675504E2,1.042607546E0,7.082982540E0,-9.508054733E0
1.614675504E2,1.110509515E0,-1.854368091E0,2.527581215E0
1.615675504E2,-4.495087862E-1,-3.739533424E-1,-8.045349121E-1
1.616675504E2,-8.731046915E-1,-4.830699444E0,3.212421417E0
1.617675504E2,-2.416119576E-1,-4.711147308E0,3.818333626E0
1.618675504E2,-2.481550574E-1,-6.135769844E0,5.816017151E0
1.619675504E2,-7.237159014E-1,-5.097492695E0,2.632658005E0
1.620675504E2,-7.753570676E-1,-5.531086922E0,4.931178093E0
1.621675504E2,1.893359542E0,6.867653847E0,-6.469391346E0
1.622675504E2,6.656770110E-1,5.306755543E0,-7.641986847E0
1.623675504E2,-2.492434978E-1,4.305274963E0,-7.908682823E0
1.624675504E2,-4.723727703E-1,-4.028681517E-1,8.870315552E-2
1.625675504E2,6.508704424E-1,-5.368053913E0,3.828795433E0
1.626675504E2,-8.741599321E-2,-4.311721802E0,3.132882118E0
1.627675504E2,3.437530696E-1,-1.324836016E-1,-6.144971848E-1
1.628675504E2,3.173923492E-1,-1.387904644E0,5.511846542E-1
1.629675504E2,-1.695523143E0,-1.033579111E0,-9.385023117E-1
1.630675504E2,6.581072807E-1,-1.752704024E0,-2.717275620E-1
1.631675504E2,-9.987812042E-1,-1.649236679E-1,6.948099136E-1
1.632675504E2,2.221111298E0,-2.894145250E-1,-2.680152893E0
1.633675504E2,-3.255255222E0,-4.054547310E0,4.887278557E0
1.634675504E2,1.672736526E0,-1.284063935E0,-2.731784821E0
1.635675504E2,-1.682238340E0,1.383227110E-1,2.998515129E0
1.636675504E2,-2.233241796E-1,-1.178435326E0,-4.769468307E-1
1.637675504E2,-1.418477774E0,-3.445071697E0,3.116880417E0
1.638675504E2,-1.993686914E0,-3.952266216E0,2.800327301E0
1.639675504E2,2.003741264E0,-1.103258371E0,-1.339173317E0
1.640675504E2,2.287105083E0,8.430795670E-1,-3.240912437E0
1.641675504E2,-9.648859501E-1,1.113286972E0,-1.563725471E0
1.642675504E2,-1.517684460E-1,2.975019217E0,-2.079840660E0
1.643675504E2,1.622650385E0,-9.154251218E-1,-2.980079651E0
1.644675504E2,1.176778316E0,-6.372258186E0,5.959921837E0
1.645675504E2,-2.258127928E-2,-2.161357403E0,2.700881958E-1
1.646675504E2,-3.653395176E0,-6.667674065E0,8.315319061E0
1.647675504E2,-4.473342299E-1,-9.745337486E0,7.299796104E0
1.648675504E2,-3.571843386E0,-7.404810429E0,6.105637550E0
1.649675504E2,4.021280289E0,4.998457432E-1,-2.706922531E0
1.650675504E2,2.975898266E0,-1.633583784E0,-4.078178406E-1
1.651675504E2,3.971863985E-1,-6.824106693E0,7.133143425E0
1.652675504E2,-1.205131650E0,6.139757633E-1,-2.076395988E0
1.653675504E2,-4.253798485E0,-9.962838292E-1,-3.760509491E0
1.654675504E2,-4.076450825E0,-3.582333088E0,4.800630569E0
1.655675504E2,1.664397001E0,9.607452154E-1,-5.100724697E0
1.656675504E2,1.665701747E0,4.692693710E0,-4.308488846E0
1.657675504E2,1.039642453E0,-1.939937115E0,-1.374994278E0
1.658675504E2,-1.412986040E0,-5.139001608E-1,-9.365625381E-1
1.659675504E2,-8.528769612E-1,-3.006795406E0,2.640831947E0
1.660675504E2,-4.404420853E-1,-1.596970558E0,-6.717119217E-1
1.661675504E2,4.279617369E-1,-3.741854191E0,4.182245255E0
1.662675504E2,5.962577462E-1,1.458097696E0,-2.428779125E0
1.663675504E2,1.699426889E0,-2.195076942E-1,5.147552490E-2
1.664675504E2,-7.122817039E-1,-2.299337864E0,3.996295929E0
1.665675504E2,-1.063876867E0,-1.498053908E0,-8.893766403E-1
1.666675504E2,-1.772280812E0,-3.155086040E0,4.543483734E0
1.667675504E2,-3.184219360E0,-2.879883766E0,2.886011124E0
1.668675504E2,-1.093001366E0,-5.861993432E-1,2.738583565E0
1.669675504E2,2.008998156E0,4.025584698E0,-4.876756668E0
1.670675504E2,-4.010339379E-1,-8.560000062E-1,-7.665910721E-1
1.671675504E2,4.188262522E-1,-1.924981713E0,3.857812881E-1
1.672675504E2,-3.246794343E-1,-1.290788770E0,-2.147216797E-1
1.673675504E2,1.730556488E-1,5.625534058E-2,-6.421289444E-1
1.674675504E2,-4.852542281E-1,-7.984334826E-1,8.988189697E-2
1.675675504E2,-1.141988993E0,1.926975489E0,-2.624148369E0
1.676675504E2,-7.025551200E-1,-6.322575212E-1,-5.405235291E-2
1.677675504E2,-2.257698774E-2,-2.064510822E0,-4.522037506E-2
1.678675504E2,-6.913769245E-1,-3.371911049E0,5.535418510E0
1.679675504E2,8.239277005E-1,1.296114683E0,-3.242650986E0
1.680675504E2,-1.555163741E0,-1.744512081E0,2.588087082E0
1.681675504E2,-1.787256241E0,-9.055760503E-1,-3.725500107E-1
1.682675504E2,1.821810007E-1,1.966850042E0,-6.742922783E0
1.683675504E2,-1.142426968E0,7.892489433E-3,1.817248344E0
1.684675504E2,9.174407721E-1,-2.564043999E-1,-2.088069916E-1
1.685675504E2,-8.439312577E-1,-3.857765198E0,2.465645790E0
1.686675504E2,2.033717632E0,-1.199103832E0,-7.439918518E-1
1.687675504E2,9.067361355E-1,1.160458922E0,-1.802420616E0
1.688675504E2,-1.126239419E0,4.112446785E0,-1.875417709E0
1.689675504E2,-2.336281300E0,-2.598704100E-1,-6.624984741E-2
1.690675504E2,-1.037557602E0,-9.469686747E-1,-2.381010056E-1
1.691675504E2,3.869310617E-1,-1.309567809E0,-4.941835403E-1
1.692675504E2,4.986484051E-1,1.205918312E0,-9.103088379E-1
1.693675504E2,1.274881363E-1,-4.149009585E-1,1.352783203E0
1.694675504E2,7.993729115E-1,-3.729346752E0,3.070864677E0
1.695675504E2,-1.549549460E0,3.493614197E0,-6.070976257E0
1.696675504E2,1.556066036E0,1.150966883E0,-2.000413895E0
1.697675504E2,4.607944489E-1,1.372188568E0,1.264505386E0
1.698675504E2,-2.538691759E-1,9.103000164E-2,-7.302436829E-1
1.699675504E2,-2.557139397E-1,4.110682011E-2,1.277985573E0
1.700675504E2,1.566794515E-1,-1.885074019E0,-8.883361816E-1
1.701675504E2,1.669203997E0,-2.461005211E0,3.395462036E-2
1.702675504E2,-8.405054808E-1,-1.891987324E0,4.155454636E-1
1.703675504E2,2.117232323E0,2.298256397E0,-3.469860077E0
1.704675504E2,6.658411026E-1,1.701627731E0,-2.835370064E0
1.705675504E2,-9.697420597E-1,7.234771252E-1,-3.562755585E-1
1.706675504E2,3.414199352E0,-1.395886183E0,-9.890537262E-1
1.707675504E2,4.380524158E-2,1.621565104E0,-1.559385300E0
1.708675504E2,1.173216343E0,1.317449212E0,2.069358826E-1
1.709675504E2,7.722266316E-1,-2.701530457E-1,-1.307446480E0
1.710675504E2,1.879684925E0,-4.456384778E-1,2.463521957E-1
1.711675504E2,-1.543422937E0,-1.971398711E0,-1.545363426E0
1.712675504E2,-1.575759530E0,-1.071010947E0,-1.840791702E-1
1.713675504E2,1.691709280E0,1.979932070E0,-3.449487209E0
1.714675504E2,8.849377632E-1,7.247122526E-1,-2.597069740E0
1.715675504E2,1.354075432E0,2.780776978E0,-3.366894722E0
1.716675504E2,-4.598486423E-2,-4.319491863E0,2.561992645E0
1.717675504E2,3.062362671E-1,-1.114735842E0,4.680738449E-1
1.718675504E2,4.650545120E-1,-8.708131313E-2,8.691701889E-1
1.719675504E2,-2.339388132E-1,-8.792418838E-1,5.333480835E-1
1.720675504E2,3.048284769E0,2.082615852E0,-3.128326893E0
1.721675504E2,-1.240618467E0,-2.169505358E-1,2.771272659E-1
1.722675504E2,-1.595843554E0,-4.137051105E-1,-1.016741753E0
1.723675504E2,1.008076668E-1,1.179455519E0,-2.610940456E0
1.724675504E2,1.168149114E0,-2.096934319E0,2.694190025E0
1.725675504E2,-4.155383110E-1,-1.329522133E-1,-5.669784546E-1
1.726675504E2,7.278621197E-2,-2.869385242E0,-4.031944275E-1
1.727675504E2,-2.091037750E0,-2.375603676E0,2.107628822E0
1.728675504E2,-1.160224080E0,5.263767242E-1,-9.187688828E-1
1.729675504E2,-1.079390883E0,8.222746849E-1,-3.110694885E-2
1.730675504E2,-9.532999992E-2,1.055746913E0,-3.181713581E0
1.731675504E2,-1.690785885E0,-2.695348740E0,4.710655212E-1
1.732675504E2,-6.331000328E-1,-9.684402347E-1,2.728462219E-2
1.733675504E2,9.111576676E-1,8.994159698E-1,-1.327825546E0
1.734675504E2,3.446954012E0,2.018682480E0,-4.617847919E0
1.735675504E2,7.362499237E-1,-7.053223848E-1,2.098528862E0
1.736675504E2,1.265660524E-1,-1.446606874E0,-8.703460693E-1
1.737675504E2,2.096257210E-1,-1.238009930E0,-1.712845325E0
1.738675504E2,-5.293278694E-1,-2.793023586E-1,7.735366821E-1
1.739675504E2,-1.604932904E0,9.515604973E-1,8.696174622E-2
1.740675504E2,-6.448897123E-1,5.438231230E-1,1.382234573E0
1.741675504E2,-5.420935154E-1,-8.349602699E0,5.845432281E0
1.742675504E2,-1.336541414E0,7.808594704E-1,-7.868528366E-1
1.743675504E2,-1.011114120E-1,7.420464754E-1,-1.266911507E0
1.744675504E2,9.880359173E-1,1.872800589E0,-2.704330444E0
1.745675504E2,-7.606558800E-1,2.213208199E0,6.670436859E-1
1.746675504E2,-2.829531431E-1,-9.894418716E-2,-3.540663719E0
1.747675504E2,1.423825383E0,2.308383465E0,-3.863450050E0
1.748675504E2,1.499477029E0,-2.204529762E0,1.825243950E0
1.749675504E2,1.417491794E0,-3.156813622E0,4.577880859E0
1.750675504E2,-2.874131441E0,2.261353731E-1,3.285522461E-1
1.751675504E2,-9.433388710E-1,8.769240379E-1,-6.192789078E-1
1.752675504E2,3.599612117E-1,-3.299191952E0,2.076744080E0
1.753675504E2,-4.483804107E-1,7.591264248E-1,-1.968570709E0
1.754675504E2,1.009646058E-1,4.501383305E-1,-1.870016098E0
1.755675504E2,-6.640897989E-1,1.159533501E0,1.102245331E0
1.756675504E2,1.717425466E0,4.517649412E-1,-1.496865273E0
1.757675504E2,8.047667742E-1,3.122635365E0,-5.569000244E0
1.758675504E2,1.118966579E0,-2.319221020E0,1.666672707E0
1.759675504E2,-6.106454134E-2,-1.079141498E0,2.394907951E0
1.760675504E2,-3.524571657E-1,5.703528404E0,-3.284120560E0
1.761675504E2,2.312130928E-1,-2.373275757E0,3.658582687E0
1.762675504E2,8.077211380E-1,7.131590843E-1,-1.586294174E-1
1.763675504E2,-1.983049870E0,-5.461700439E0,4.639893532E0
1.764675504E2,-1.184201002E0,-4.392159462E0,2.859580040E0
1.765675504E2,-6.215195060E-1,1.418741465E0,-1.531771660E0
1.766675504E2,-5.700157285E-1,-1.430896282E0,2.627678871E0
1.767675504E2,9.717019796E-1,-4.649140358E0,4.436601639E0
1.768675504E2,2.699511051E-1,-2.081322908E0,4.234247208E-1
1.769675504E2,6.917682886E-1,-2.586532593E0,2.782020569E0
1.770675504E2,4.533972740E-1,6.378797054E0,-4.794249535E0
1.771675504E2,-1.952240109E0,-9.583291411E-1,1.002108574E0
1.772675504E2,5.304677486E-1,-7.330243587E-1,1.080061913E0
1.773675504E2,4.419996142E-1,-2.509608746E0,-6.710748672E-1
1.774675504E2,-4.279949665E-1,-1.071641088E0,7.166032791E-1
1.775675504E2,-1.593959093E0,-7.088605165E-1,-2.191336155E0
1.776675504E2,-6.885043383E-1,1.337260246E0,-2.113061428E0
1.777675504E2,1.138716042E-1,-6.530364752E-1,1.229267120E0
1.778675504E2,3.530567884E-1,-9.300180674E-1,-2.183794975E0
1.779675504E2,1.863448620E0,-2.206580639E0,1.762939453E0
1.780675504E2,8.708685637E-2,6.316660643E-1,-2.268703461E0
1.781675504E2,-1.686838865E0,-6.460006237E-1,1.959205627E0
1.782675504E2,1.905207634E-1,3.760888100E0,-3.926279068E0
1.783675504E2,-7.244187593E-2,2.899026871E-2,-1.239557266E0
1.784675504E2,-2.011248112E0,-3.259852409E0,2.521972656E0
1.785675504E2,1.355644226E0,-1.350833535E0,-5.751094818E-1
1.786675504E2,1.520939112E0,-2.427665234E0,4.449768066E0
1.787675504E2,-1.596583605E0,-9.889805317E-2,3.881833076E0
1.788675504E2,-1.164743781E0,1.892938256E0,-4.421454430E0
1.789675504E2,3.193867803E-1,-5.232295036E0,2.427000999E0
1.790675504E2,1.678103209E0,-2.836064816E0,2.888570786E0
1.791675504E2,6.318795681E-2,3.752995968E0,1.922986984E0
1.792675504E2,2.407470942E-1,-1.908474803E0,4.835287094E0
1.793675504E2,-9.335960150E-1,-3.286352158E-1,-8.319311142E-1
1.794675504E2,-2.630716562E-1,-1.243072987E0,4.468736649E-1
1.795675504E2,1.839042306E-1,1.972129345E-1,-1.005965233E0
1.796675504E2,1.246582031E0,1.024641037E0,-2.050952911E-1
1.797675504E2,-8.887897730E-1,2.857372284E0,-1.791786194E0
1.798675504E2,-7.388401031E-2,-8.205024004E-1,-1.656452179E0
1.799675504E2,6.125110388E-1,-9.148041010E-1,1.069517136E0
1.800675504E2,1.710815191E0,3.941250324E0,-5.126831532E0
1.801675504E2,-7.136318684E-1,-8.697437644E-1,-1.752740860E0
1.802675504E2,-1.991649389E0,1.685714722E-2,2.140092850E-1
1.803675504E2,-1.243561268E0,6.470636129E-1,-2.717305660E0
1.804675504E2,-3.717430830E-1,-4.724075317E0,5.614789009E0
1.805675504E2,1.809383512E0,1.177969575E0,-2.025386810E0
1.806675504E2,1.397371054E0,-1.536752462E0,1.580507278E0
1.807675504E2,-8.480111361E-1,2.553699970E0,-6.692209244E-1
1.808675504E2,-1.511273623E0,-2.874370813E0,5.250854492E-1
1.809675504E2,1.653612852E-1,-4.797398448E-1,2.213214874E0
1.810675504E2,1.869624972E0,3.648456335E-1,-1.625060558E0
1.811675504E2,5.407733917E-1,1.082569242E0,-1.754140377E0
1.812675504E2,-3.062829971E-1,-3.320992947E0,2.962738991E0
1.813675504E2,-5.716273785E-1,1.307897806E0,-2.024363518E0
1.814675504E2,1.496700764E0,-1.686444759E0,1.684150696E-1
1.815675504E2,4.552379847E-1,-1.267966747E0,1.647897720E0
1.816675504E2,4.503391385E-1,-7.954108119E-1,-4.990749359E-1
1.817675504E2,1.630421877E-1,1.318532228E0,-6.784248352E-1
1.818675504E2,-5.162016153E-1,-7.553247213E-1,3.985853195E-1
1.819675504E2,-1.125787497E-1,1.766902328E0,-2.338207245E0
1.820675504E2,7.378605008E-1,2.110140324E-1,-1.611238480E0
1.821675504E2,-6.954211593E-1,-2.063176870E0,2.322660446E0
1.822675504E2,6.143053770E-1,-1.057134032E0,1.067715645E0
1.823675504E2,5.458097458E-1,1.841786742E0,-2.780964851E0
1.824675504E2,9.989254475E-1,-1.780486822E0,-1.005211830E0
1.825675504E2,1.478546858E-1,-1.634887099E0,1.925315857E0
1.826675504E2,-4.868886471E-1,-1.664572716E0,1.049165726E0
1.827675504E2,1.537742138E0,1.508607507E0,-2.596311569E0
1.828675504E2,1.373342395E0,-2.923414707E0,1.062804222E0
1.829675504E2,5.822342634E-2,-3.880648613E-1,2.837610245E-1
1.830675504E2,-9.356408715E-1,1.796297431E0,-1.188022614E0
1.831675504E2,-7.713771462E-1,1.010990143E-2,-1.576304436E0
1.832675504E2,-6.048511863E-1,-1.789524078E0,9.925708771E-1
1.833675504E2,-4.919091463E-1,-2.926418781E0,2.108074188E0
1.834675504E2,1.820825934E-1,1.958204508E-1,-7.094335556E-1
1.835675504E2,2.695395947E-1,4.258341789E-1,-2.324305534E0
1.836675504E2,-2.005016804E-1,9.020128250E-1,-1.456778526E0
1.837675504E2,-4.995266199E-1,-1.250146270E0,8.651180267E-1
1.838675504E2,-4.418745041E-1,-1.409253359E0,1.085640907E0
1.839675504E2,-1.610606313E-1,-1.170927048E0,8.732995987E-1
1.840675504E2,-2.285967469E-1,-8.476706743E-1,1.237941742E0
1.841675504E2,7.025858164E-1,6.664840579E-1,-8.614540100E-1
1.842675504E2,-1.024470329E-1,-1.665170670E0,1.525794983E0
1.843675504E2,-3.421370387E-1,-1.708401203E0,1.124217033E0
1.844675504E2,-3.261958361E-1,-1.080983281E0,2.618904114E-1
1.845675504E2,-4.588584900E-1,7.206416130E-2,1.160053253E0
1.846675504E2,-9.393705130E-1,-2.452903748E0,4.494499207E0
1.847675504E2,-2.105602741E0,1.130990505E0,-1.382822990E0
1.848675504E2,-3.874981999E-1,-2.262372971E0,-2.039844990E0
1.849675504E2,-1.693232298E0,-1.181923866E0,1.240265846E0
1.850675504E2,-1.365379572E0,-1.449152827E0,4.881582260E-1
1.851675504E2,3.949587643E-1,-1.531180143E-1,-3.139820099E-1
1.852675504E2,-6.797333360E-1,-2.075495005E0,1.863080025E0
1.853675504E2,4.145825803E-1,1.222570419E0,-2.032559872E0
1.854675504E2,1.491716504E-1,8.601191044E-1,-9.242343903E-1
1.855675504E2,-6.955778599E-2,1.348276615E0,-9.798660278E-1
1.856675504E2,5.453146696E-1,-1.957417130E-1,-7.855501175E-1
1.857675504E2,-3.108347654E-1,8.597028255E-2,-8.025293350E-1
1.858675504E2,5.956858397E-1,-1.225689650E0,-2.051467896E-1
1.859675504E2,4.564213753E-2,-1.454335213E0,1.808194160E0
1.860675504E2,8.156930208E-1,-8.031636477E-1,-1.311626434E-1
1.861675504E2,-7.095776796E-1,-2.305979967E0,2.570807457E0
1.862675504E2,2.128461599E-1,-6.857351065E-1,2.393083572E-1
1.863675504E2,1.180884957E0,-1.095084906E0,-3.487920761E-1
1.864675504E2,1.130015850E-1,1.293778539E0,-8.313846588E-2
1.865675504E2,-2.045463324E-1,-2.976061821E0,2.626063347E0
1.866675504E2,-9.260979891E-1,-2.898995638E0,1.806099892E0
1.867675504E2,-9.183216095E-2,-2.447520256E0,3.062768936E0
1.868675504E2,7.428303957E-1,-2.002274036E0,2.084477425E0
1.869675504E2,5.655785799E-1,-9.013730288E-2,-6.217107773E-1
1.870675504E2,9.222753048E-1,1.472242594E0,-5.268020630E-1
1.871675504E2,-6.986272335E-1,-1.562766552E0,1.739880562E0
1.872675504E2,1.608346701E-1,-1.838360310E0,6.323890686E-1
1.873675504E2,-1.002548933E0,9.463805556E-1,-3.387422562E-1
1.874675504E2,-3.997907639E-1,-7.162151337E-1,7.270307541E-1
1.875675504E2,8.784837127E-1,-2.055387020E0,1.863647461E0
1.876675504E2,-1.329228878E0,1.760376692E-1,-8.403301239E-1
1.877675504E2,4.635114670E-1,-3.178691268E-1,-4.070281982E-2
1.878675504E2,1.205860496E0,-2.222807109E-1,-3.462324142E-1
1.879675504E2,-2.155708671E-1,-2.004899025E0,2.246252060E0
1.880675504E2,1.527025342E0,2.098708153E-1,-3.124967575E0
1.881675504E2,-7.393419743E-1,-4.084438086E-1,-1.818933487E-1
1.882675504E2,-1.028306246E0,-1.220156670E0,-1.953840256E-1
1.883675504E2,-8.209205866E-1,-4.139631093E-1,-6.164455414E-2
1.884675504E2,7.468429208E-1,2.186382532E0,-2.973850250E0
1.885675504E2,5.828877091E-1,3.889676929E-1,-1.469812393E-1
1.886675504E2,-8.490220904E-1,1.321257591E0,-2.445310593E0
1.887675504E2,-9.920014739E-1,-8.108687997E-1,8.984785080E-1
1.888675504E2,-5.784231424E-2,7.087420821E-1,-9.232559204E-1
1.889675504E2,-3.592834473E-1,2.465583682E-1,-1.794624329E-1
1.890675504E2,-6.050866842E-1,-7.646071911E-1,1.564037323E0
1.891675504E2,1.837902665E-1,-1.360196471E-1,-2.025489807E-1
1.892675504E2,-1.379084587E-1,-1.465968132E0,1.241033554E0
1.893675504E2,2.641156316E-1,-5.451521873E-1,-8.398971558E-1
1.894675504E2,-1.291755438E0,-1.203294039E0,1.147715569E0
1.895675504E2,-9.179031253E-1,-2.133596182E0,2.268192291E0
1.896675504E2,6.085432768E-1,-1.723350644E0,1.999058723E0
1.897675504E2,2.506669521E0,6.921563148E-1,-2.015924454E0
1.898675504E2,5.104377270E-1,5.638931394E-1,-1.169051170E0
1.899675504E2,-1.091504216E0,1.584932566E0,-1.276536942E0
1.900675504E2,7.201020122E-1,4.776347876E-1,-1.760530472E-1
1.901675504E2,1.228113651E0,-5.399767160E-1,1.563920975E-1
1.902675504E2,5.873757601E-1,3.715817332E-1,8.839988708E-1
1.903675504E2,6.191540956E-1,-1.583589911E-1,-5.466232300E-1
1.904675504E2,-1.597205639E0,-5.174298286E-1,2.391271591E-1
1.905675504E2,-1.004798293E0,-1.597874641E0,2.199822426E0
1.906675504E2,-1.822373867E-1,1.052889943E0,-8.986253738E-1
1.907675504E2,-8.972501755E-2,8.537621498E-1,-6.734590530E-1
1.908675504E2,1.956049204E-1,5.768591166E-1,-4.095935822E-2
1.909675504E2,4.475623369E-2,1.520946741E0,-1.179118156E0
1.910675504E2,1.630410671E0,-4.978656769E-3,-4.153308868E-1
1.911675504E2,-5.559413433E-1,-1.145684481E0,1.712253571E0
1.912675504E2,-6.448943615E-1,-2.508530617E-1,4.412584305E-1
1.913675504E2,-1.604938507E-2,6.195369363E-1,-1.893813610E0
1.914675504E2,6.624544859E-1,-6.446885467E-1,1.122856140E-2
1.915675504E2,4.171308875E-1,-2.610654831E-1,-1.055528641E0
1.916675504E2,-1.864451170E-1,-7.317295671E-1,6.021928787E-1
1.917675504E2,-9.774571657E-1,3.369001746E-1,1.367177963E-1
1.918675504E2,-2.415816188E-1,2.311524153E-1,2.220439911E-2
1.919675504E2,-1.172293305E0,1.703904390E0,-1.955606461E0
1.920675504E2,-3.491159081E-1,-2.274464965E-1,1.149751663E0
1.921675504E2,4.934241176E-1,1.201603413E0,-7.929391861E-1
1.922675504E2,-2.238948345E-1,6.900918484E-2,2.024583817E-1
1.923675504E2,7.414436340E-1,-3.732436895E-2,3.380870819E-2
1.924675504E2,1.501031518E-1,-1.844004869E0,2.390328407E0
1.925675504E2,6.432066560E-1,-1.268404007E0,9.862909317E-1
1.926675504E2,-3.563798666E-1,-8.606417179E-1,1.475620270E0
1.927675504E2,-2.004917860E-1,-3.432486653E-1,8.444280624E-1
1.928675504E2,2.238014936E-1,-2.069212198E0,1.819950104E0
1.929675504E2,-1.240071058E-1,-1.380924106E0,8.095645905E-1
1.930675504E2,-3.761191964E-1,-2.623845041E-1,5.077943802E-1
1.931675504E2,-8.559613228E-1,-1.824524701E-1,-1.329068184E0
1.932675504E2,-7.311801910E-1,-1.899832487E0,1.910440445E0
1.933675504E2,5.482947826E-1,-1.221602082E0,-3.847141266E-1
1.934675504E2,1.257645488E-1,-7.952755690E-2,-2.489013672E-1
1.935675504E2,-5.489205122E-1,-5.576496720E-1,-9.143037796E-1
1.936675504E2,1.165918112E0,-5.491380095E-1,6.563367844E-1
1.937675504E2,-2.257469893E-1,-8.550479412E-1,8.480424881E-1
1.938675504E2,1.300870895E0,-6.427469254E-1,5.308370590E-1
1.939675504E2,1.376906633E0,1.138692498E0,-1.244152069E0
1.940675504E2,3.503327370E-1,2.401064634E-1,6.896972656E-3
1.941675504E2,-1.053531051E0,1.944109797E-1,-5.220603943E-2
1.942675504E2,-6.530539989E-1,1.353981018E0,-2.172708988E0
1.943675504E2,-8.740842342E-3,1.045229077E0,-2.126784801E0
1.944675504E2,-9.320914745E-2,2.065972328E0,-3.039123535E0
1.945675504E2,3.165708184E-1,1.818011999E-1,-7.598333359E-1
1.946675504E2,-3.670746088E-1,1.299502730E0,-9.781589508E-1
1.947675504E2,-6.759932041E-1,-9.943922162E-1,5.575189590E-1
1.948675504E2,-3.673076034E-1,1.426574588E0,-1.113697052E0
1.949675504E2,-1.535022259E-1,5.782009959E-1,-1.048898697E-1
1.950675504E2,-2.626258135E-2,8.078342080E-1,-1.098385811E0
1.951675504E2,-5.222262740E-1,4.957296848E-1,5.385026932E-1
1.952675504E2,-5.826961994E-2,2.558358312E-1,-4.841327667E-2
1.953675504E2,-4.627072215E-1,1.188773394E0,-1.939506531E-1
1.954675504E2,-8.831289411E-1,-7.586435080E-1,7.454090118E-1
1.955675504E2,-4.467277527E-1,-1.390576363E-1,8.188762665E-1
1.956675504E2,-5.143517256E-1,-1.827890277E-1,2.413692474E-1
1.957675504E2,-7.681864500E-2,-3.668856919E-1,5.473861694E-1
1.958675504E2,3.549727798E-1,-1.117338061E0,1.233163834E0
1.959675504E2,-5.310608745E-1,-1.011307478E0,7.994947433E-1
1.960675504E2,4.053255916E-1,-6.558748484E-1,7.237949371E-1
1.961675504E2,-3.580451012E-3,-7.461680174E-1,6.708221436E-1
1.962675504E2,-3.230559826E-2,-1.342948198E0,5.196990967E-1
1.963675504E2,-1.118879318E-1,-1.804108024E-1,5.177659988E-1
1.964675504E2,4.434717894E-1,-1.958094835E-1,-1.606924057E0
1.965675504E2,1.595233679E-1,-1.375356913E0,9.812383652E-1
1.966675504E2,-7.619643211E-2,-8.832637072E-1,8.535728455E-1
1.967675504E2,2.001358271E0,2.651849985E0,1.002000809E0
1.968675504E2,1.402466893E0,1.472169757E-1,-2.908124924E-1
1.969675504E2,-2.746475935E-1,-2.615035534E0,2.352903366E0
1.970675504E2,-8.358472586E-1,-3.127789497E0,2.799454689E0
1.971675504E2,-1.348448277E0,1.537850380E0,-1.065189362E0
1.972675504E2,1.301757097E-1,3.007063150E0,-1.678930283E0
1.973675504E2,6.248878241E-1,-2.077735424E0,8.234329224E-1
1.974675504E2,-5.500978231E-1,7.134808302E-1,-3.267669678E-1
1.975675504E2,-5.362844467E-2,3.883606791E-1,-8.322572708E-1
1.976675504E2,4.672473073E-1,-4.998104572E-1,2.946901321E-1
1.977675504E2,6.239274740E-1,4.840409756E-2,9.752712250E-1
1.978675504E2,1.414231062E-1,-3.467736840E-1,7.864665985E-2
1.979675504E2,-1.210093975E0,-9.866791368E-1,1.157630920E0
1.980675504E2,-1.111448526E0,1.484064817E0,-1.146159172E0
1.981675504E2,-8.282322288E-1,-2.421327829E-1,5.196628571E-1
1.982675504E2,-1.115874648E-1,1.749233007E-1,-1.593732834E-1
1.983675504E2,-1.742582798E0,1.223471880E0,-5.998430252E-1
1.984675504E2,-1.637247801E0,-1.311330199E0,1.768906593E0
1.985675504E2,4.784674942E-1,3.194353580E0,-3.252816200E0
1.986675504E2,2.216057181E-1,1.827630877E0,-1.392095566E0
1.987675504E2,-7.779365778E-2,9.580296278E-1,-5.567512512E-1
1.988675504E2,-5.358660221E-2,-9.286880493E-2,1.893138885E-1
1.989675504E2,1.608402133E-1,8.468816280E-1,-2.837483406E0
1.990675504E2,-1.741247773E-1,1.578458667E0,-2.937643051E0
1.991675504E2,-2.293097973E-1,1.480517745E0,-1.850381374E0
1.992675504E2,4.025930166E-2,8.746087551E-3,-4.938220978E-2
1.993675504E2,3.444028199E-1,-7.019149065E-1,1.047366142E0
1.994675504E2,-7.684383392E-1,8.993464708E-1,-1.945487499E0
1.995675504E2,1.161884069E-1,7.076872587E-1,-6.195688248E-1
1.996675504E2,-1.479103565E-1,8.658347130E-1,-1.832376480E0
1.997675504E2,7.440978885E-1,-2.089184523E-2,-2.462444305E-1
1.998675504E2,1.304887176E0,4.534339309E-1,1.071701050E-1
1.999675504E2,3.069819450E0,-1.478958130E-2,-8.403930664E-1
2.000675504E2,1.683344126E0,-6.731624603E-1,-1.694192886E-1
2.001675504E2,-6.969761848E-1,-1.968667805E-1,5.851621628E-1
2.002675504E2,2.070555091E-1,-9.080421925E-2,-7.489757538E-1
2.003675504E2,3.547024727E-2,1.074080229E0,-1.441996574E0
2.004675504E2,-2.253460884E-2,1.136912823E0,-1.937185287E0
2.005675504E2,7.447630167E-1,1.179638624E0,-1.370714188E0
2.006675504E2,7.113457918E-1,1.287965775E-1,-3.092384338E-1
2.007675504E2,1.078855515E0,-3.370550871E-1,-4.663753510E-1
2.008675504E2,2.040927410E-1,1.879037619E-1,-1.707050323E0
2.009675504E2,-2.632117271E-2,1.329067230E0,-2.396098614E0
2.010675504E2,-6.878328323E-2,5.540857911E-1,-1.837162495E0
2.011675504E2,1.110292196E0,1.723797441E0,-3.191000462E0
2.012675504E2,6.434696317E-1,-1.828491688E-1,2.968301773E-1
2.013675504E2,3.898382187E-1,9.825404882E-1,-2.729691029E0
2.014675504E2,-1.009586096E0,-8.128849268E-1,3.078050613E-1
2.015675504E2,-7.816988230E-1,-1.255803704E-1,6.121854782E-1
2.016675504E2,-1.895750165E-1,-8.999979496E-1,9.835853577E-1
2.017675504E2,-2.796686292E-1,1.924724221E0,-1.966909409E0
2.018675504E2,-5.984901786E-1,2.667767763E0,-1.471137047E0
2.019675504E2,1.371966124E0,1.171946049E0,-1.052542686E0
2.020675504E2,-4.317931533E-1,-1.827967465E-1,6.879997253E-2
2.021675504E2,1.507052779E-1,1.794067621E-1,1.551253319E0
2.022675504E2,1.915402412E-1,8.664923310E-1,-1.515451431E0
2.023675504E2,4.347838163E-1,3.872047067E-1,-8.755693436E-1
2.024675504E2,7.841074467E-2,3.352037668E-1,1.954898834E-1
2.025675504E2,1.693179727E0,-9.342305660E-1,3.411283493E-1
2.026675504E2,-8.482050896E-2,-3.472630084E-1,3.997306824E-1
2.027675504E2,2.802600861E-1,3.166500926E-1,-8.989801407E-1
2.028675504E2,4.225692749E-1,-1.126107574E0,-1.431179047E-2
2.029675504E2,5.932089090E-1,-5.041494370E-1,-1.091175079E-1
2.030675504E2,1.322622538E0,-4.219849706E-1,-4.580879211E-2
2.031675504E2,-3.420411348E-1,-1.839445233E-1,1.236381531E-1
2.032675504E2,6.236615181E-1,7.607208490E-1,-2.546624184E0
2.033675504E2,1.099202633E-1,6.917455792E-1,-1.123996735E0
2.034675504E2,2.678045630E-1,9.262761474E-1,-8.974685669E-1
2.035675504E2,-2.634642720E-1,-1.199130774E0,4.721632004E-1
2.036675504E2,-5.458528399E-1,7.320405841E-1,2.557182312E-1
2.037675504E2,-5.845018029E-1,-7.240281105E-1,1.155567169E-2
2.038675504E2,-1.653599381E0,-1.157013297E0,8.912363052E-1
2.039675504E2,-1.665982604E-1,-6.356933713E-1,1.213941574E-1
2.040675504E2,-5.261884928E-1,-4.392007291E-1,-9.813318253E-1
2.041675504E2,2.691213191E-1,7.736522555E-1,3.400478363E-1
2.042675504E2,-4.143270850E-1,1.298583984E0,-2.173381805E0
