Time (s),Acceleration x (m/s^2),Acceleration y (m/s^2),Acceleration z (m/s^2)
0.017047,-0.913161,9.020942,3.623033
0.037006,-0.490230,9.260822,3.393920
0.137006,-0.703191,9.164511,3.443571
0.237006,-0.555733,9.214162,3.515056
0.337006,-1.112064,9.187542,3.436991
0.437006,-1.220938,9.142676,3.274877
0.537006,-1.079462,8.688339,4.075874
0.637006,-0.763310,9.075378,3.664010
0.737006,-1.380060,9.445967,3.323332
0.837006,0.001496,10.744073,0.203689
0.937006,0.632603,9.680762,2.531905
1.037006,-1.472483,10.070194,1.811666
1.137006,-0.675673,9.687641,2.876472
1.237006,-0.305982,8.802596,4.224827
1.337006,-0.259322,8.714062,4.041777
1.437006,0.226720,9.585348,3.351447
1.537006,-1.831107,9.454940,2.623431
1.637006,0.023629,9.842875,2.266900
1.737006,-1.240978,10.277473,3.183950
1.837006,1.066900,9.189635,2.987738
1.937006,0.350549,11.210075,1.211067
2.037006,-1.463510,8.148159,4.408776
2.137006,2.023132,9.048160,3.771986
2.237006,0.181256,9.715159,1.754537
2.337006,0.174975,9.832108,2.232803
2.437006,1.336691,10.430015,2.387738
2.537006,-1.069293,9.973883,0.612862
2.637006,-0.876072,7.797013,6.392127
2.737006,-4.755436,5.999704,2.784946
2.837006,1.333400,10.823934,3.850052
2.937006,-3.349952,6.866803,-3.855136
3.037006,-0.172582,11.137991,2.806781
3.137006,-0.503689,11.370095,1.183550
3.237006,-0.687338,9.121440,2.077269
3.337006,-0.473181,6.097809,1.751845
3.437006,-1.832304,8.255239,2.743072
3.537006,-0.556331,10.690832,-0.584746
3.637006,0.335892,13.389338,2.114657
3.737006,1.016950,9.908978,4.650152
3.837006,-1.928316,6.259026,1.568196
3.937006,2.170290,10.884951,6.142974
4.037006,-3.677170,9.491430,1.234098
4.137006,-2.339582,10.061819,2.471786
4.237006,0.197109,11.263615,4.657031
4.337006,0.297308,7.868498,4.050450
4.437006,-1.693221,9.757631,1.688435
4.537006,-2.305485,8.270493,2.786442
4.637006,-0.158824,4.984549,-7.192825
4.737006,-2.087738,19.040886,-5.627919
4.837006,-7.517651,8.084749,2.364109
4.937006,1.778465,9.401101,2.674278
5.037006,-1.831706,8.812167,3.305385
5.137006,2.004886,9.342776,2.417349
5.237006,-2.991028,9.143872,5.835496
5.337006,-2.297409,6.823732,6.302097
5.437006,0.636491,9.362218,2.041975
5.537006,-2.246262,9.491430,2.490928
5.637006,-2.801397,11.539686,4.539484
5.737006,-0.579661,8.516654,5.220541
5.837006,-1.564308,8.727522,5.726025
5.937006,0.800100,9.023335,1.063011
6.037006,-3.967300,9.484850,3.230909
6.137006,4.131806,9.259925,1.457528
6.237006,-3.730411,9.317352,5.769095
6.337006,3.631407,7.585547,2.821736
6.437006,-2.831906,8.738588,-9.348459
6.537006,-0.910768,18.589241,21.045773
6.637006,3.958327,6.148059,-0.234497
6.737006,-4.724030,8.334201,1.228415
6.837006,2.968895,5.864509,4.363910
6.937006,-1.872982,14.947963,-18.075981
7.037006,-7.517950,7.703094,12.148062
7.137006,1.363311,9.624531,5.550750
7.237006,-4.249653,6.611967,1.269691
7.337006,0.859622,12.686746,-0.614656
7.437006,2.244169,4.689334,16.124035
7.537006,-0.167198,10.685449,2.152344
7.637006,-0.437288,10.885847,3.804887
7.737006,1.299303,9.211470,2.793920
7.837006,-0.057428,12.046067,0.774676
7.937006,-3.328416,12.343974,2.462813
8.037006,1.943271,7.768000,5.321638
8.137006,3.658028,7.450951,5.215456
8.237006,-0.523729,9.286545,5.701498
8.337006,-0.663410,10.993824,1.788336
8.437006,-2.427519,8.897711,3.073282
8.537006,3.495017,7.108179,2.516352
8.637006,0.892224,8.606983,1.717448
8.737006,-1.991127,19.590637,13.065410
8.837006,0.455534,8.378768,13.441382
8.937006,1.215255,12.159128,2.591128
9.037006,-2.963212,10.123136,1.961217
9.137006,0.903889,7.728817,3.702594
9.237006,2.191227,10.664512,1.255036
9.337006,-2.340779,3.807280,8.669795
9.437006,1.276272,14.388342,-2.944069
9.537006,0.361615,8.434401,3.559025
9.637006,-0.574876,9.323633,1.129113
9.737006,-2.083251,10.848759,5.736792
9.837006,3.529712,8.100004,6.373881
9.937006,-1.785046,10.537093,5.901000
10.037006,0.171386,6.884749,7.315756
10.137006,-1.773680,14.751452,1.943570
10.237006,0.636491,7.363912,2.531307
10.337006,-1.465903,5.500501,6.554539
10.437006,-0.987338,6.630811,0.622134
10.537006,3.330211,10.219148,2.702693
10.637006,-1.612164,10.864910,0.729213
10.737006,1.994418,5.411967,9.189336
10.837006,0.213559,12.194423,-7.176075
10.937006,5.799305,12.306287,9.106186
11.037006,-2.478665,4.206582,4.004389
11.137006,-2.817250,11.362917,1.759024
11.237006,-0.592822,5.701498,7.129415
11.337006,-1.818246,10.914561,1.147358
11.437006,-0.872483,8.462815,0.221037
11.537006,2.387140,8.699406,2.596811
11.637006,0.061615,9.815060,0.490828
11.737006,-1.895415,12.141182,0.986142
11.837006,-1.182054,9.110074,2.897708
11.937006,-0.145364,8.983554,9.122337
12.037006,-1.532304,8.356634,4.039384
12.137006,0.699901,10.227223,2.905186
12.237006,-1.834099,8.222337,4.385446
12.337006,0.446561,9.522238,-0.320937
12.437006,1.982454,7.987840,-1.347458
12.537006,3.434598,10.512268,3.063112
12.637006,-0.744467,8.338090,10.315458
12.737006,2.496312,5.507380,-4.183850
12.837006,-4.091128,13.796118,-4.017549
12.937006,-3.798307,7.585846,13.568501
13.037006,2.918047,3.152245,-2.259124
13.137006,-4.640281,17.350657,-7.184749
13.237006,-3.276971,4.324728,12.890434
13.337006,-1.563710,9.738489,4.857729
13.437006,-0.160618,12.758531,0.616451
13.537006,-3.856034,9.481560,4.135695
13.637006,2.702394,6.853642,7.899605
13.737006,-5.434998,13.235002,2.036890
13.837006,-0.098704,9.766904,2.125425
13.937006,-0.218943,6.425925,5.719743
14.037006,4.842176,8.055437,-3.148057
14.137006,-5.978168,10.771590,-4.472784
14.237006,0.406481,8.934201,0.204287
14.337006,0.340379,2.108077,-5.606383
14.437006,-0.244666,11.807682,-11.340185
14.537006,-1.575973,5.269893,5.117350
14.637006,-1.873879,7.758428,2.115853
14.737006,1.526023,14.292330,-1.348954
14.837006,-0.556929,6.671788,2.918346
14.937006,-4.107280,12.196217,8.806784
15.037006,0.489631,7.672586,10.410274
15.137006,-3.084348,10.408480,-11.607882
15.237006,1.227219,9.789935,5.176573
15.337006,1.375275,9.256036,9.042477
15.437006,-1.240978,2.607579,5.602794
15.537006,1.151546,15.105889,-2.101796
15.637006,3.433102,7.609774,8.442476
15.737006,-2.317449,12.761821,21.032013
15.837006,2.279762,6.134599,6.619744
15.937006,0.105583,11.743376,-0.933500
16.037006,-2.369792,15.454943,-0.389432
16.137006,2.082952,0.415155,15.018551
16.237006,-1.508376,13.846666,-0.838385
16.337006,-1.625325,9.464511,7.317551
16.437006,-2.791527,10.086645,18.962521
16.537006,3.308676,14.716757,9.326923
16.637006,3.559922,4.402794,7.963314
16.737006,-1.417747,22.375883,-10.905888
16.837006,1.585245,4.241278,9.057731
16.937006,-0.607777,16.765909,20.135304
17.037006,4.307380,6.564111,3.995116
17.137006,1.045364,10.377971,3.360420
17.237006,0.489930,12.756736,-10.256834
17.337006,-7.557730,10.761421,1.703092
17.437006,5.739185,7.647461,7.043572
17.537006,-4.306782,13.302897,1.375275
17.637006,5.442475,9.798908,1.481157
17.737006,-0.538983,6.413363,3.166303
17.837006,-3.026921,15.644275,8.076076
17.937006,-0.204287,6.751648,20.073389
18.037006,2.308476,1.240978,-7.694121
18.137006,1.350748,14.089837,-11.771192
18.237006,-1.085743,10.708778,2.721836
18.337006,2.471786,6.618248,8.260024
18.437006,-2.086840,8.108976,7.933702
18.537006,2.323730,9.329616,-2.276771
18.637006,-1.989931,11.018051,0.562912
18.737006,2.269592,10.061521,-2.531307
18.837006,-0.150150,13.632808,2.155036
18.937006,-4.472186,14.838491,18.117855
19.037006,1.852643,5.586643,16.031612
19.137006,-0.845564,2.423929,9.896116
19.237006,-1.154836,12.251850,-5.474479
19.337006,-0.267398,4.691727,-6.321538
19.437006,0.344267,6.428617,8.049456
19.537006,-0.432503,10.453345,-1.229313
19.637006,-1.992324,6.000900,-13.339089
19.737006,-1.783550,10.210473,-10.998610
19.837006,-2.835495,12.505190,-8.477173
19.937006,0.148654,7.870293,5.825327
20.037006,-1.366302,8.440681,2.490928
20.137006,1.790729,7.054938,5.184350
20.237006,-4.661219,9.949955,5.596513
20.337006,4.116552,3.711268,-6.308079
20.437006,-0.221037,10.504192,-1.288535
20.537006,-1.546063,8.832506,1.261018
20.637006,-1.394118,9.991231,1.398904
20.737006,-2.187339,8.488837,9.380463
20.837006,0.224925,9.984053,8.163414
20.937006,-5.920142,7.023832,-0.055334
21.037006,2.432304,9.384950,0.062213
21.137006,-1.698904,14.938990,1.223630
21.237006,0.715753,5.573482,8.546564
21.337006,-1.821835,7.894221,0.054138
21.437006,-1.236192,11.179866,4.976772
21.537006,-4.151248,8.685946,2.530410
21.637006,3.341577,9.055637,0.879362
21.737006,1.445863,9.766904,-1.585544
21.837006,0.416052,9.292826,-2.589034
21.937006,0.202493,12.043974,1.951347
22.037006,-0.251246,3.200101,3.465405
22.137006,1.199402,14.769399,0.253938
22.237006,-1.189233,10.055239,2.363511
22.337006,0.318844,8.953045,4.725226
22.437006,4.666303,11.018649,4.459025
22.537006,-1.726122,7.860123,1.744667
22.637006,-0.603290,10.241580,1.551147
22.737006,2.518745,7.791330,4.268497
22.837006,0.436391,9.866206,-0.726222
22.937006,1.607379,10.824831,0.966102
23.037006,0.861117,11.388639,4.109972
23.137006,-1.744069,9.365807,-1.125225
23.237006,-3.458825,12.311072,5.574379
23.337006,3.825824,6.491728,6.573981
23.437006,-1.795215,10.840982,-0.094217
23.537006,0.547956,9.125628,0.336491
23.637006,-1.536491,8.514261,3.948756
23.737006,-0.282951,6.628119,0.754636
23.837006,0.806082,7.867002,5.488537
23.937006,1.341476,1.627419,-12.214163
24.037006,11.499606,53.769119,-5.225924
24.137006,-5.513063,-0.194417,-0.923031
24.237006,-3.525226,2.137389,10.859227
24.337006,18.932312,-48.841698,73.472816
24.437006,5.230112,25.165016,-20.688644
24.537006,-4.878068,6.906883,10.027721
24.637006,-0.409771,12.090933,-3.546462
24.737006,1.110270,9.850952,6.821938
24.837006,-2.498705,4.746463,11.861521
24.937006,-3.840780,9.697811,1.703690
25.037006,-0.745962,8.164310,5.856134
25.137006,-0.420838,11.579766,-1.674378
25.237006,-2.292623,9.977772,7.023233
25.337006,-2.396113,20.177477,3.560819
25.437006,-0.675075,7.517651,5.125725
25.537006,-0.389133,20.870499,-6.797710
25.637006,-3.636791,3.880560,4.674977
25.737006,1.785943,13.736896,-7.941479
25.837006,-1.607678,6.844669,3.614658
25.937006,-3.651148,12.606586,1.676770
26.037006,-2.070390,5.146662,-0.588933
26.137006,-1.261317,11.898011,1.346561
26.237006,2.190330,7.710273,-3.843471
26.337006,-0.311964,10.596017,1.176671
26.437006,-3.386442,9.614362,-3.965505
26.537006,-3.676871,12.488441,-0.466600
26.637006,4.796712,4.759324,0.524028
26.737006,-3.499802,11.148759,4.422534
26.837006,1.710569,7.269395,8.213663
26.937006,-1.739283,9.030213,1.588535
27.037006,-2.400898,10.245768,5.233701
27.137006,0.376870,4.997410,1.531407
27.237006,-2.439183,13.580764,-1.841576
27.337006,-2.598905,11.997613,21.113668
27.437006,-0.509671,8.095517,19.342682
27.537006,-2.205883,5.707480,5.863612
27.637006,0.661915,10.907084,-6.810272
27.737006,0.657727,13.270595,-9.768399
27.837006,0.256032,7.377970,11.355140
27.937006,1.621736,6.573981,-5.044369
28.037006,1.047757,12.899407,0.589532
28.137006,1.374078,8.592327,9.565009
28.237006,1.091127,6.686145,4.614858
28.337006,-3.074478,9.060722,1.200599
28.437006,-1.395913,8.097610,4.233800
28.537006,-1.089931,8.464610,6.366105
28.637006,-0.373280,9.357432,-2.847459
28.737006,-3.185744,12.789936,4.412963
28.837006,-1.451546,10.930713,4.195815
28.937006,1.588834,8.998508,7.256235
29.037006,-3.369393,12.332608,6.105287
29.137006,0.674477,3.992126,1.770689
29.237006,1.274178,10.083653,7.518847
29.337006,-2.380559,4.559225,8.712566
29.437006,-0.033799,10.034002,3.300899
29.537006,-2.458326,11.205289,6.227620
29.637006,-0.359821,8.731709,5.459524
29.737006,-2.401497,11.520843,0.966999
29.837006,4.753043,12.003894,8.023434
29.937006,-2.464607,5.129015,6.972386
30.037006,-0.071785,10.143175,2.358426
30.137006,0.847358,6.824330,4.171886
30.237006,-4.050750,11.216954,5.255237
30.337006,-0.064905,8.191829,3.390630
30.437006,-0.359223,10.013963,-2.327618
30.537006,0.294018,10.443475,3.155236
30.637006,1.517349,10.515259,0.876670
30.737006,4.772784,8.469096,2.173580
30.837006,2.792125,5.284549,-5.228018
30.937006,0.619442,10.343873,2.437389
31.037006,-4.252644,6.865307,4.262515
31.137006,0.530010,10.896615,2.054537
31.237006,-2.469393,5.653941,-1.116850
31.337006,-1.932503,12.898211,4.427021
31.437006,1.407279,7.881659,6.395417
31.537006,-0.211765,8.637791,2.010868
31.637006,4.163212,8.995218,0.455234
31.737006,-2.068595,12.280265,6.296114
31.837006,0.940678,5.781658,2.487638
31.937006,0.856331,10.153943,-2.278864
32.037006,-1.643570,6.742376,7.955238
32.137006,-2.106282,6.851249,6.119046
32.237006,1.846960,10.595119,4.054638
32.337006,-2.160719,12.348162,-1.033699
32.437006,0.259920,9.682856,5.475676
32.537006,0.569193,11.559128,-1.927119
32.637006,0.050249,6.856633,-3.774379
32.737006,-2.249253,8.315358,11.325529
32.837006,-0.760918,8.016853,4.886443
32.937006,2.395216,6.268896,5.615057
33.037006,-2.943471,5.784050,7.399804
33.137006,-2.390430,11.637493,2.746063
33.237006,2.770290,7.037292,9.068499
33.337006,-3.235395,13.264314,0.265304
33.437006,1.060020,9.637991,5.963512
33.537006,0.597907,9.463016,-0.212662
33.637006,0.183649,8.449356,3.666103
33.737006,-0.598206,8.614161,1.542473
33.837006,-5.229215,6.843174,-0.643968
33.937006,1.071685,8.035398,9.210872
34.037006,-1.389333,8.614461,10.324731
34.137006,0.218943,8.303095,-5.121837
34.237006,-2.282155,16.104294,12.291631
34.337006,-3.212963,9.063713,13.551153
34.437006,8.691928,9.046664,-3.006582
34.537006,-2.675774,8.426325,-0.501296
34.637006,-1.267897,8.244471,7.257730
34.737006,-3.554239,11.163714,13.522140
34.837006,0.197707,6.615556,0.584746
34.937006,-2.721238,7.700103,0.127119
35.037006,-2.249552,12.182458,0.719342
35.137006,-4.176373,9.186047,4.734798
35.237006,2.498705,11.677872,13.334303
35.337006,-0.620339,8.577073,6.567102
35.437006,-0.556331,5.270192,-0.147159
35.537006,3.677768,12.180664,1.622035
35.637006,-2.357528,3.066103,4.901996
35.737006,-0.564407,20.378773,8.369795
35.837006,-0.521037,2.455634,9.360423
35.937006,-1.781456,14.458033,5.799604
36.037006,6.130711,6.908079,10.593924
36.137006,-2.241178,14.408381,2.848356
36.237006,-0.733699,7.478169,17.061724
36.337006,-0.132802,2.807379,-3.174977
36.437006,-5.411667,12.453146,-9.320343
36.537006,-1.660320,10.448559,6.014060
36.637006,1.578964,4.470092,-0.275474
36.737006,-4.709374,12.866507,0.898804
36.837006,2.111666,9.465408,3.205485
36.937006,2.092224,16.110874,18.024534
37.037006,1.476970,1.661217,8.555837
37.137006,0.771087,16.249359,-6.557829
37.237006,3.557230,3.556632,15.031413
37.337006,-3.926323,11.937194,-0.510569
37.437006,1.408475,6.362216,-0.062512
37.537006,-1.797907,9.491430,1.006182
37.637006,-0.609272,7.033702,3.640979
37.737006,4.174578,9.051150,3.737290
37.837006,-3.754638,9.328419,1.853241
37.937006,-0.848555,5.499005,3.259623
38.037006,-0.198305,12.331711,-3.471387
38.137006,-1.852344,4.738088,4.100101
38.237006,2.469094,11.823535,3.784847
38.337006,2.158027,6.504589,-10.812268
38.437006,-1.347159,11.571092,-2.635694
38.537006,-0.348754,8.493922,4.986941
38.637006,-3.392723,14.360226,-6.599405
38.737006,1.940579,7.021738,-0.585942
38.837006,-0.477069,8.568100,3.032005
38.937006,-1.846960,11.399706,2.397309
39.037006,3.648456,11.019247,-4.358826
39.137006,2.049453,9.586246,-1.136890
39.237006,-2.328216,11.772089,-1.188036
39.337006,-1.144966,5.775077,2.017149
39.437006,0.451645,13.588541,-4.657928
39.537006,-2.847160,9.268898,3.172285
39.637006,-1.821835,8.724232,8.883055
39.737006,0.779462,10.322039,-4.379165
39.837006,-8.085049,11.212169,3.911368
39.937006,1.100100,6.905985,-1.882553
40.037006,-1.810469,8.767601,-11.089537
40.137006,-2.747858,9.900902,5.832804
40.237006,-3.717250,7.295118,-5.662016
40.337006,-1.019043,11.050354,1.668695
40.437006,1.037289,8.294122,7.591828
40.537006,-0.005384,7.256833,-3.459423
40.637006,-6.620342,11.467303,-5.229215
40.737006,3.066402,9.821640,8.934800
40.837006,-4.135396,19.206289,6.425327
40.937006,3.819543,3.981657,21.884157
41.037006,-3.989434,11.281859,3.095116
41.137006,-1.737787,7.002894,-2.084448
41.237006,-1.226022,10.849956,6.655636
41.337006,-2.839383,7.906484,6.469594
41.437006,-4.473382,13.133307,-3.059523
41.537006,-4.596014,3.085844,8.588140
41.637006,-0.077767,15.173786,9.870094
41.737006,-1.249353,5.105984,12.881461
41.837006,-6.350551,11.430813,8.582756
41.937006,-0.663709,6.021538,5.286344
42.037006,0.291027,12.516556,1.929512
42.137006,-1.378266,6.382555,4.240680
42.237006,-6.634101,5.966204,1.242772
42.337006,2.402394,9.395418,-6.066104
42.437006,-4.148257,13.669298,4.888536
42.537006,1.311267,3.076572,1.526920
42.637006,-8.816056,14.979070,0.129811
42.737006,3.032604,7.394121,3.739384
42.837006,-1.930709,11.534003,6.125028
42.937006,0.401097,6.595517,4.679165
43.037006,-8.672486,10.020244,0.183350
43.137006,2.425724,9.111569,2.529513
43.237006,1.736292,6.494719,8.088937
43.337006,-4.517948,15.360725,-0.172881
43.437006,-5.024928,5.341977,7.290931
43.537006,-1.540978,11.362318,-2.540280
43.637006,1.320240,9.349955,4.802694
43.737006,-0.463609,7.622037,-1.291526
43.837006,-3.622734,10.311870,-6.827321
43.937006,1.675873,13.298411,8.402696
44.037006,0.448056,3.630510,-1.180559
44.137006,-0.024227,8.549854,-5.396712
44.237006,1.046262,9.209974,14.146069
44.337006,-0.819243,13.167105,4.352544
44.437006,-0.579960,11.069796,8.682656
44.537006,0.998405,7.115955,-3.441477
44.637006,-1.300798,12.325130,4.822734
44.737006,1.758126,3.672684,6.973283
44.837006,-1.864607,6.985547,-1.797010
44.937006,0.004187,11.031212,-7.604989
45.037006,-0.263809,6.176773,11.535200
45.137006,0.763909,5.847161,0.484247
45.237006,-0.748953,8.571091,1.272982
45.337006,-1.684846,8.985049,3.437290
45.437006,-1.095913,8.716754,0.945464
45.537006,2.780759,5.056633,1.212862
45.637006,-4.853841,17.341982,10.811670
45.737006,0.616451,3.246462,13.447065
45.837006,-2.556731,2.741576,1.921137
45.937006,1.141675,19.559830,5.373682
46.037006,-0.259920,3.980161,14.170894
46.137006,-3.609872,9.471390,5.662914
46.237006,0.987338,7.981260,-5.696712
46.337006,-0.653540,8.248059,7.892128
46.437006,0.925125,12.677773,7.835597
46.537006,-1.423430,1.741078,7.420741
46.637006,-8.338388,11.601900,-4.047759
46.737006,4.580461,-0.969392,-3.509373
46.837006,-2.465804,10.518848,-3.029613
46.937006,-5.874081,11.743974,1.654338
47.037006,-0.702892,1.640280,-2.469393
47.137006,1.461416,16.840685,-4.213461
47.237006,-1.389333,3.635595,1.836192
47.337006,0.597907,14.010574,10.459626
47.437006,-6.351449,3.429214,2.089532
47.537006,-4.698307,13.344772,1.249951
47.637006,2.436193,11.586645,3.127718
47.737006,-0.548256,4.747958,11.094322
47.837006,-6.899704,13.509578,3.233002
47.937006,0.177966,9.067901,10.421341
48.037006,-0.056530,9.882358,4.640880
48.137006,-0.376570,8.397013,-1.328914
48.237006,-3.953541,7.848757,-2.182254
48.337006,-3.128616,16.177277,1.255634
48.437006,1.803590,3.071188,13.602598
48.537006,0.038883,5.721239,13.683057
48.637006,4.926523,4.958826,-2.529213
48.737006,-1.113560,13.525131,-8.540881
48.837006,-2.007578,9.105289,2.434996
48.937006,0.206680,8.813364,-0.832702
49.037006,1.082752,13.785649,6.293124
49.137006,-0.590728,6.662815,5.867500
49.237006,-2.552843,11.072786,0.719940
49.337006,-0.070588,8.003393,7.063313
49.437006,6.310771,8.615358,5.359025
49.537006,-2.127518,7.766205,0.103789
49.637006,-1.017847,14.859728,4.986941
49.737006,2.051546,6.109474,8.411369
49.837006,6.833901,9.271589,-1.698306
49.937006,-0.811167,9.322736,-6.122336
50.037006,-2.586641,11.161920,3.993322
50.137006,0.615853,6.666703,8.630612
50.237006,6.872785,9.550353,4.493721
50.337006,-0.892523,6.667600,-3.110071
50.437006,-2.518446,11.451451,3.945465
50.537006,-1.303789,7.903792,6.320641
50.637006,5.453243,7.194320,1.926820
50.737006,-3.782454,11.911471,9.757033
50.837006,0.614058,6.859624,5.320441
50.937006,-3.110370,10.763515,3.757928
51.037006,1.695913,11.769996,8.250154
51.137006,-3.378067,6.140880,12.717553
51.237006,-1.074377,9.843773,9.093025
51.337006,1.042074,6.170192,8.504690
51.437006,-2.546263,9.489935,-7.332805
51.537006,-5.341678,11.138290,2.171487
51.637006,-4.017549,7.370193,10.269995
51.737006,1.643869,5.725127,3.096911
51.837006,-7.274181,11.188540,-3.774379
51.937006,0.843769,8.865108,9.418449
52.037006,0.307777,10.298409,9.841979
52.137006,2.728715,6.740880,-0.730409
52.237006,-10.415060,10.548161,1.400100
52.337006,2.840879,7.619645,8.177771
52.437006,-1.062413,6.799206,4.483850
52.537006,-2.804986,15.429219,-2.898905
52.637006,-0.632603,3.729513,2.285146
52.737006,1.395913,9.310772,4.328616
52.837006,-0.960718,10.905588,1.497907
52.937006,-0.559621,9.009874,-1.457229
53.037006,0.222533,3.721736,2.356332
53.137006,-3.890131,12.996915,-1.375275
53.237006,0.622134,8.030014,2.311167
53.337006,-1.517050,9.131310,5.027919
53.437006,2.682055,8.935099,0.485743
53.537006,-0.716052,9.395119,0.287737
53.637006,0.400499,8.483752,4.730311
53.737006,1.849054,9.324830,0.043669
53.837006,-3.699603,9.069695,1.882852
53.937006,5.144269,9.073882,4.877769
54.037006,-2.591128,3.785146,-2.877369
54.137006,-0.769292,11.749059,-5.015356
54.237006,-1.779363,9.895817,12.346965
54.337006,-6.726823,10.607383,-2.943471
54.437006,3.742973,12.168401,0.723829
54.537006,-1.774577,4.239783,5.580361
54.637006,-0.432503,9.247960,-6.173183
54.737006,-4.202395,7.536793,0.889532
54.837006,1.548455,9.262018,6.019444
54.937006,-2.382055,13.486247,5.200202
55.037006,5.207679,7.093224,6.782156
55.137006,-1.718346,8.173583,-1.760519
55.237006,-4.439882,9.279067,7.323234
55.337006,0.772882,10.190733,1.754238
55.437006,2.783152,8.815457,2.210669
55.537006,-1.812862,10.891829,4.489533
55.637006,7.943573,9.427423,2.909373
55.737006,-1.156332,5.576772,-8.566605
55.837006,-1.587638,12.338291,2.718546
55.937006,-0.654736,9.898808,-0.465404
56.037006,-2.357828,9.711270,1.229313
56.137006,-1.992922,14.891133,1.909772
56.237006,1.607678,1.014856,6.655636
56.337006,-7.386643,15.697814,3.829414
56.437006,2.808576,3.197708,10.156036
56.537006,0.516551,6.969096,3.748955
56.637006,-1.522433,10.379766,-1.107877
56.737006,3.363411,8.095817,8.435896
56.837006,-2.976671,13.820345,7.150651
56.937006,0.641276,6.046064,-5.220840
57.037006,-2.767598,14.816358,6.892825
57.137006,1.663311,4.648656,-2.805584
57.237006,-0.438186,12.252748,8.023732
57.337006,-0.245563,5.395815,6.794719
57.437006,-5.858826,12.647563,3.157330
57.537006,-1.724029,7.352247,2.447259
57.637006,-1.844567,11.465210,7.846963
57.737006,-3.710072,2.087140,7.612167
57.837006,2.575275,14.681762,6.608378
57.937006,-1.509273,5.277370,15.654145
58.037006,2.981756,9.127721,-6.786942
58.137006,-0.492323,13.173685,3.252145
58.237006,-1.634896,5.081757,1.755435
58.337006,-1.558924,7.476075,-5.030611
58.437006,0.709771,12.664014,-6.728916
58.537006,0.399003,8.402397,-1.188635
58.637006,-1.167398,12.852748,1.775175
58.737006,2.035993,8.811869,1.579861
58.837006,-3.665804,6.477072,8.594720
58.937006,-2.392524,5.624330,3.626622
59.037006,3.549154,10.859825,1.585245
59.137006,-4.482355,8.259725,1.167398
59.237006,2.273780,11.979667,7.198807
59.337006,-0.953540,8.448459,5.586044
59.437006,-6.204290,8.532207,-2.617150
59.537006,3.544967,11.429915,-1.126421
59.637006,-5.831907,8.213962,8.243274
59.737006,-0.697807,8.990134,5.490332
59.837006,-2.788835,12.853645,7.903194
59.937006,-0.837189,4.304688,-1.458126
60.037006,-1.927119,17.008482,7.406683
60.137006,1.435694,5.286344,12.257533
60.237006,-1.461416,11.865110,-0.341575
60.337006,5.737092,8.407183,9.489336
60.437006,-1.626820,8.408080,6.538089
60.537006,-2.658127,10.484451,6.821638
60.637006,2.980560,4.898706,-4.225426
60.737006,-4.867898,12.617653,-0.729811
60.837006,-1.332802,7.413563,2.563311
60.937006,-1.313361,12.414562,4.594818
61.037006,-0.463609,9.297313,-1.054338
61.137006,1.953441,12.667603,5.967102
61.237006,-1.723131,6.186344,8.272287
61.337006,0.227318,7.264310,1.156631
61.437006,0.697508,13.593327,3.105585
61.537006,1.347458,7.583752,6.781857
61.637006,-3.178865,13.826925,1.087239
61.737006,3.412165,3.431009,-1.695913
61.837006,-2.841178,12.290733,-3.164807
61.937006,-0.570688,8.456235,1.251745
62.037006,3.171088,8.553444,-2.526821
62.137006,-3.186941,9.584750,4.924728
62.237006,-0.808774,7.962716,6.261718
62.337006,0.598804,8.980862,-9.571889
62.437006,-4.400700,8.131110,-4.836194
62.537006,0.405583,9.201001,3.204887
62.637006,-0.232403,5.431109,1.023530
62.737006,-1.799403,12.922139,3.777968
62.837006,2.173580,9.409476,6.941578
62.937006,-3.228516,10.957334,3.596113
63.037006,0.467199,10.989038,-0.094816
63.137006,-2.286940,10.600802,7.070492
63.237006,1.188934,7.517950,13.337593
63.337006,1.425823,13.795220,5.405685
63.437006,0.387338,1.620539,0.533899
63.537006,-0.291027,12.998112,-5.077869
63.637006,0.126221,6.687939,4.843073
63.737006,-0.384646,10.786546,5.621937
63.837006,-2.838785,7.265806,7.148558
63.937006,0.602692,10.272388,7.290033
64.037006,-2.089532,4.549354,3.644269
64.137006,0.655334,6.348458,-4.510171
64.237006,-0.976571,7.356135,0.757029
64.337006,-3.281457,13.566407,1.491327
64.437006,0.048455,10.928320,-7.006484
64.537006,2.289333,15.302400,9.874282
64.637006,-2.512763,3.990032,5.361119
64.737006,-0.336192,12.315260,5.495416
64.837006,1.380958,4.176074,4.493721
64.937006,-2.439782,13.876876,5.717949
65.037006,3.774678,6.592525,3.786343
65.137006,0.105284,13.134204,3.495914
65.237006,-2.585744,6.120242,7.524231
65.337006,-1.980360,10.260722,1.734796
65.437006,4.310072,8.683254,-1.511068
65.537006,-6.019444,8.647362,1.849951
65.637006,-0.742373,10.413564,-3.082853
65.737006,-1.481157,6.153742,6.822237
65.837006,-7.274181,10.177871,-0.348754
65.937006,2.114358,8.049456,1.853839
66.037006,1.410270,12.238689,1.346860
66.137006,-1.447359,16.194324,6.808478
66.237006,3.344269,1.672284,4.763512
66.337006,-3.811168,5.863612,-1.042972
66.437006,-0.607777,12.905689,1.484746
66.537006,-1.767100,7.641479,12.296118
66.637006,3.810570,7.570292,4.235595
66.737006,-5.518447,5.901598,2.884548
66.837006,0.794118,13.802998,4.857729
66.937006,1.769193,6.996614,9.656834
67.037006,-0.415454,17.789740,-7.313363
67.137006,-2.941377,7.973483,8.878867
67.237006,-4.931607,11.702099,10.497911
67.337006,1.601097,-5.040481,2.449353
67.437006,-0.822832,21.894627,2.199602
67.537006,1.952842,8.083254,9.439685
67.637006,-1.579263,7.232904,1.177568
67.737006,1.129412,11.905788,-12.620943
67.837006,1.566401,5.095815,-5.077869
67.937006,-2.231307,15.754344,-3.468696
68.037006,0.581755,15.325730,12.010474
68.137006,3.882654,11.477772,3.383451
68.237006,3.900301,4.620541,8.062915
68.337006,-10.025628,18.000008,-5.452046
68.437006,4.212564,3.250649,8.601001
68.537006,0.180957,3.806083,4.458427
68.637006,2.054238,17.072790,-2.441875
68.737006,-4.578367,9.483653,7.653144
68.837006,1.138385,10.166206,4.207181
68.937006,0.947857,8.205288,7.251150
69.037006,1.033101,10.099506,5.037490
69.137006,1.825125,8.152646,2.738885
69.237006,0.139083,8.437990,4.010670
69.337006,-0.219541,8.966505,3.690331
69.437006,-0.187238,6.211469,1.383949
69.537006,3.627519,11.620743,1.109971
69.637006,-3.372085,10.302597,11.685947
69.737006,2.643172,11.330913,1.773082
69.837006,1.406082,5.223831,2.013560
69.937006,-0.080160,18.914066,-3.982853
70.037006,2.471786,5.756533,9.764511
70.137006,-4.620242,10.824532,1.797010
70.237006,2.468795,8.810672,-7.255936
70.337006,1.945066,9.259027,3.936492
70.437006,0.165703,10.413863,-1.665704
70.537006,-1.140778,6.201598,8.140083
70.637006,-3.411268,10.646864,3.487838
70.737006,5.454140,8.845368,8.738289
70.837006,-2.995216,12.495619,2.371886
70.937006,-2.080260,8.455936,15.643078
71.037006,-4.179065,-3.051447,5.717350
71.137006,-3.055634,17.205292,5.102695
71.237006,-2.153241,3.990331,3.865605
71.337006,3.473780,14.616857,-3.780660
71.437006,-0.169890,9.017950,-9.055937
71.537006,-0.785444,12.478570,6.655337
71.637006,-3.069991,10.275080,2.803192
71.737006,0.218046,1.972882,9.043972
71.837006,-1.328914,9.372387,5.937490
71.937006,1.541277,13.745869,-2.400300
72.037006,-1.487438,8.115258,3.104687
72.137006,-0.587139,2.906083,5.363213
72.237006,2.944069,10.694122,9.787542
72.337006,-3.477370,9.319147,2.091327
72.437006,4.092923,9.119047,3.236891
72.537006,1.386042,11.594123,3.887140
72.637006,-0.728615,9.127422,1.304986
72.737006,-4.784449,10.205987,2.151148
72.837006,-2.583351,8.218149,6.937989
72.937006,4.687241,13.689937,-8.542377
73.037006,2.908775,5.446363,5.090730
73.137006,-3.559922,0.059821,10.638490
73.237006,-4.891827,9.710373,-1.999502
73.337006,2.050051,11.283056,3.667001
73.437006,-1.526920,11.755638,9.954741
73.537006,-2.855236,3.219543,0.400798
73.637006,-2.722733,12.821641,-2.414657
73.737006,3.669693,5.126323,5.886942
73.837006,5.207978,-4.134798,-7.939086
73.937006,-2.497808,11.055439,-10.582558
74.037006,-4.237988,3.163910,23.218157
74.137006,-4.504189,9.616156,-2.487339
74.237006,1.429412,11.265708,11.926127
74.337006,-4.028915,4.804788,2.523830
74.437006,1.029811,13.143177,7.920841
74.537006,1.384846,2.510968,6.035895
74.637006,-3.979563,16.801504,-10.654043
74.737006,1.447658,14.025230,-5.377271
74.837006,-3.920640,5.806483,6.346663
74.937006,1.493420,15.038890,-0.753739
75.037006,-2.805285,5.934798,0.413659
75.137006,0.120838,8.199605,-4.278068
75.237006,-11.275279,11.458032,-6.305985
75.337006,0.061017,14.280964,5.186144
75.437006,0.419342,5.137989,0.820140
75.537006,-10.822737,19.585552,0.042772
75.637006,7.974082,-0.282951,11.730813
75.737006,-1.876571,16.393826,-9.101699
75.837006,-3.876971,8.944670,14.059628
75.937006,-10.022038,8.556135,14.510077
76.037006,4.047759,12.888640,-2.787638
76.137006,-0.723829,8.303992,4.603192
76.237006,3.569493,4.616353,8.661420
76.337006,-8.082058,6.325427,12.303296
76.437006,3.197708,10.606485,-8.687442
76.537006,1.674378,11.344073,-4.435396
76.637006,8.141280,-2.233999,13.872090
76.737006,-1.273580,12.736097,16.148561
76.837006,4.847260,-1.259223,16.755741
76.937006,1.392025,24.867409,0.031705
77.037006,1.987837,-2.198406,3.457629
77.137006,6.698408,15.842878,-20.242083
77.237006,3.691527,-2.325824,-4.982156
77.337006,-10.330712,18.952053,15.287445
77.437006,-3.703491,-3.268297,8.845966
77.537006,-4.051049,23.231915,-12.700504
77.637006,1.614258,8.501101,15.169897
77.737006,1.447359,16.046268,7.142276
77.837006,4.254439,16.882860,-12.362219
77.937006,-3.004488,5.245666,5.043472
78.037006,3.480062,9.708878,5.999404
78.137006,-6.484848,9.219845,9.858728
78.237006,0.920339,10.599905,-4.592425
78.337006,-1.980659,4.964509,-9.646963
78.437006,-5.901000,11.939587,-0.704686
78.537006,2.825923,4.439583,-5.071588
78.637006,-0.096610,12.522239,-11.776875
78.737006,1.506880,6.582356,10.967503
78.837006,-1.830808,10.997413,7.734500
78.937006,-1.993819,8.621340,2.408675
79.037006,0.675075,10.508080,10.380363
79.137006,0.151645,9.132506,3.681657
79.237006,-2.745764,5.513661,1.473081
79.337006,-0.892822,9.655338,1.813161
79.437006,-3.016751,10.455439,0.562014
79.537006,-1.762613,7.022934,0.777667
79.637006,3.361318,9.492626,-10.547263
79.737006,-4.462914,14.697913,-7.830213
79.837006,0.128016,4.983352,14.150256
79.937006,0.544965,8.143971,1.605584
80.037006,-1.547259,9.509974,-6.144170
80.137006,0.118445,16.934006,14.012071
80.237006,10.395319,6.448059,-9.655638
80.337006,-5.906682,8.727522,4.699204
80.437006,3.843771,0.503689,8.795418
80.537006,-2.249253,12.717254,2.962913
80.637006,0.341276,7.002296,11.647662
80.737006,2.377568,7.129415,3.897609
80.837006,-5.062614,10.090234,10.553544
80.937006,-5.798707,2.536392,0.486042
81.037006,0.721137,8.175976,1.868196
81.137006,-3.875774,18.907785,-15.635900
81.237006,1.177568,-2.557628,16.178473
81.337006,1.045663,20.754446,-3.325724
81.437006,-4.483850,3.440879,-10.423136
81.537006,-3.796213,5.451149,-2.071885
81.637006,2.590230,13.061222,6.992426
81.737006,1.444368,7.626823,-0.379561
81.837006,-1.416252,9.102896,-8.562118
81.937006,-2.177768,9.101400,-5.193622
82.037006,-4.909474,9.335299,-0.768694
82.137006,0.189631,17.021643,3.182753
82.237006,2.714657,-0.198305,14.672789
82.337006,-2.595913,12.808780,6.398108
82.437006,1.258026,10.584053,8.382058
82.537006,-0.587737,9.269496,-3.304189
82.637006,-0.761815,13.980664,0.032901
82.737006,4.249055,14.720346,5.781359
82.837006,-2.363211,7.729714,7.146165
82.937006,0.350249,9.332906,-0.460020
83.037006,-1.845464,7.464410,8.363513
83.137006,-3.939483,5.106882,6.119644
83.237006,-2.492424,12.731013,-4.336393
83.337006,-1.433600,8.647063,3.661019
83.437006,0.892822,5.075177,1.296611
83.537006,2.881258,14.624932,1.889732
83.637006,-0.387338,11.699706,4.147659
83.737006,-4.297210,8.622537,5.766404
83.837006,0.368495,13.304692,10.233205
83.937006,1.794019,5.574080,10.207782
84.037006,-4.447659,11.048559,-1.330110
84.137006,0.406780,10.149755,5.408377
84.237006,1.440778,6.385846,10.773385
84.337006,-3.547659,8.236395,14.607883
84.437006,1.329512,6.497112,4.952246
84.537006,-4.709374,7.139884,1.872085
84.637006,-2.472683,5.055735,-2.412563
84.737006,-1.919044,5.367101,-4.738686
84.837006,-0.921237,14.923138,0.317946
84.937006,-0.241675,6.883852,4.849354
85.037006,0.936790,6.276972,-0.731007
85.137006,-4.185645,12.815061,-2.747858
85.237006,-1.037588,9.179466,3.009573
85.337006,-0.063709,9.483355,6.592824
85.437006,6.963114,7.215557,-3.253042
85.537006,-3.622434,13.109378,0.463011
85.637006,-1.214058,8.338090,5.877071
85.737006,-3.166003,2.939583,6.199504
85.837006,2.072783,15.080167,-1.308874
85.937006,0.675972,9.608977,12.781561
86.037006,-0.297607,6.247660,9.827024
86.137006,2.456532,6.760023,0.924527
86.237006,-5.036592,12.746267,0.776172
86.337006,1.024128,7.318149,14.606089
86.437006,0.918246,12.025728,8.725727
86.537006,-0.505185,10.665110,5.430212
86.637006,-2.511566,6.352645,0.429512
86.737006,-1.869393,11.654840,1.908276
86.837006,-1.545165,8.059027,10.039985
86.937006,1.653141,8.008778,-1.324128
87.037006,-4.231707,10.923235,4.893023
87.137006,-0.688834,8.181958,1.124926
87.237006,3.366402,11.545369,1.811666
87.337006,0.900000,8.931510,9.453444
87.437006,-4.393222,12.687045,6.054141
87.537006,-1.052842,13.173087,24.454050
87.637006,-1.264009,8.695518,11.797513
87.737006,4.772784,4.851448,2.143371
87.837006,-4.724329,16.593328,-5.989833
87.937006,-4.301697,5.497809,13.220046
88.037006,1.966302,11.970394,5.386244
88.137006,4.855935,6.535995,-0.843470
88.237006,-5.070690,13.529318,-0.044267
88.337006,-8.708079,13.023236,-0.166899
88.437006,-0.861117,5.348258,12.055638
88.537006,3.731906,2.842075,9.433404
88.637006,-2.260320,11.341979,-1.350748
88.737006,-0.207876,6.117849,10.017253
88.837006,1.171586,8.623434,3.847061
88.937006,-0.410668,4.593920,-0.566800
89.037006,-2.108376,15.271294,-9.647562
89.137006,-1.596013,8.322536,-1.086342
89.237006,-0.361615,8.489137,-0.515354
89.337006,-0.045165,12.183057,-3.797110
89.437006,1.033998,13.460824,1.593022
89.537006,2.375475,10.690234,10.027123
89.637006,-0.044267,8.970393,13.177573
89.737006,0.365205,3.736692,3.493820
89.837006,0.550947,14.266606,8.214561
89.937006,-1.359721,3.691826,4.528417
90.037006,-2.319842,9.311370,1.178166
90.137006,-0.932004,7.934001,3.623033
90.237006,-5.321937,8.909974,0.378066
90.337006,-0.762114,10.383953,-1.225424
90.437006,0.491725,10.567303,3.588037
90.537006,-0.268295,6.313163,2.376970
90.637006,-0.865604,10.939387,2.854338
90.737006,2.728416,7.910971,2.278266
90.837006,-1.918446,13.360624,13.323536
90.937006,3.695415,4.891528,2.893521
91.037006,-2.559124,10.823634,10.939985
91.137006,-2.144268,7.558030,4.106084
91.237006,1.124926,10.809278,4.430909
91.337006,0.024826,10.182956,10.188938
91.437006,1.216451,9.383753,2.593521
91.537006,-2.661118,3.922135,4.425226
91.637006,-5.324928,26.475985,15.212070
91.737006,-0.559023,0.650848,13.722239
91.837006,-1.339682,12.667304,-14.475979
91.937006,13.252648,5.285745,9.524331
92.037006,-4.460221,8.594420,-2.357828
92.137006,-1.256830,15.736697,-7.263413
92.237006,0.451047,5.708976,7.066005
92.337006,0.687936,6.236892,5.404489
92.437006,-2.379363,6.780362,5.136493
92.537006,1.441377,7.083951,3.341876
92.637006,-0.486042,10.678868,0.481855
92.737006,-5.876772,7.105786,5.926125
92.837006,-0.382852,9.644272,-2.271985
92.937006,-2.464906,7.539485,-1.825125
93.037006,0.323928,11.283056,3.694219
93.137006,-2.011766,2.977569,4.882256
93.237006,1.017548,15.855142,8.617751
93.337006,-0.055932,5.299205,7.520642
93.437006,-0.150449,10.529317,1.955833
93.537006,0.354138,6.233602,2.761317
93.637006,-2.213959,12.971790,11.261222
93.737006,1.180260,4.369593,1.243071
93.837006,-2.296212,15.911075,7.221240
93.937006,0.399003,0.740579,11.139786
94.037006,-4.421637,14.810077,-7.064510
94.137006,0.367597,4.318148,4.430012
94.237006,1.830808,13.339388,11.271989
94.337006,-1.177867,5.677271,4.001398
94.437006,5.158926,14.077873,1.832603
94.537006,5.116453,3.658028,-3.291029
94.637006,-4.634299,13.166805,-3.904788
94.737006,0.045165,8.397910,1.739582
94.837006,5.872884,6.163911,-1.201795
94.937006,-3.220440,16.513468,-6.721140
95.037006,-1.125823,7.917850,-0.802194
95.137006,-2.951547,6.693323,5.399704
95.237006,-7.756634,8.368897,-2.490330
95.337006,2.211566,10.497313,-3.808177
95.437006,0.993620,7.378269,1.625026
95.537006,-0.829113,13.549059,10.222736
95.637006,2.399104,4.616652,16.186848
95.737006,0.128913,10.724930,1.010070
95.837006,2.250749,7.695617,0.846162
95.937006,-1.310669,11.725130,6.445068
96.037006,4.996214,5.522934,5.590232
96.137006,-4.999205,10.260124,2.420340
96.237006,1.219741,12.357134,-0.330210
96.337006,-2.229512,9.144770,6.839584
96.437006,2.221437,8.301001,7.155138
96.537006,-2.909074,11.017154,4.636393
96.637006,1.157229,9.266804,3.011068
96.737006,1.520938,9.466306,-6.099006
96.837006,0.183350,6.484550,-1.621137
96.937006,6.242874,9.084352,-4.099504
97.037006,-3.513860,12.719348,-3.392424
97.137006,0.525524,6.770193,2.113461
97.237006,-1.735096,12.324831,2.227120
97.337006,-6.150452,12.833904,8.912068
97.437006,-3.841976,9.740582,2.759224
97.537006,-2.523830,5.207978,2.348555
97.637006,-1.647758,13.494024,-6.221638
97.737006,-4.270889,11.064113,-3.121736
97.837006,-0.731905,6.914659,2.597708
97.937006,-0.475873,11.934801,0.871586
98.037006,-2.196611,9.707682,2.058426
98.137006,0.778565,4.068696,5.654539
98.237006,-3.332305,10.039985,4.559225
98.337006,1.042972,3.174079,-0.959522
98.437006,-2.359024,-20.673389,-26.724239
98.537006,-1.884348,24.187847,5.717052
98.637006,3.857230,-7.036095,15.938890
98.737006,-8.420342,45.498028,-60.871914
98.837006,0.197408,-9.338289,16.720446
98.937006,-3.950849,23.375484,-2.005485
99.037006,-5.963512,2.742175,20.145473
99.137006,0.605085,11.519347,1.724627
99.237006,3.788137,9.897313,11.889038
99.337006,1.171287,10.392926,7.951649
99.437006,0.301795,10.329516,6.377769
99.537006,4.260122,-0.825524,8.986245
99.637006,0.589532,11.506486,-5.347660
99.737006,1.589732,13.029219,3.607778
99.837006,-1.922334,6.406783,-5.183452
99.937006,-2.069193,15.970297,-5.053043
100.037006,1.019642,8.647063,0.001795
100.137006,1.205384,13.703097,14.072489
100.237006,-0.704985,5.447859,1.319642
100.337006,-1.487139,14.984155,8.083254
100.437006,-1.916950,4.675875,10.623236
100.537006,-3.564409,7.399505,7.437790
100.637006,4.819145,13.070495,-2.469692
100.737006,-4.550550,1.734198,6.410970
100.837006,-2.482853,21.577578,-7.861918
100.937006,0.293420,0.476770,3.930211
101.037006,6.156733,12.896117,-10.447063
101.137006,-5.080561,16.610077,8.533403
101.237006,-0.035593,12.091830,12.984353
101.337006,0.538385,12.454941,10.375877
101.437006,-4.447958,12.949956,2.779862
101.537006,-1.641775,-1.361217,-0.721137
101.637006,2.646163,10.618449,0.620638
101.737006,0.346660,9.274282,0.867099
101.837006,-2.886043,11.698809,7.003194
101.937006,3.464209,5.176872,6.600302
102.037006,-4.466802,11.393425,-2.851945
102.137006,-1.803889,5.877071,3.339782
102.237006,1.388435,14.843277,9.591928
102.337006,-5.400002,9.601500,8.941978
102.437006,6.777670,7.677670,-5.082056
102.537006,-3.514159,9.996017,1.932503
102.637006,0.037388,10.984551,6.512067
102.737006,4.525725,8.077870,-4.130311
102.837006,-2.989234,9.299406,0.969990
102.937006,-1.467399,9.538389,3.541677
103.037006,1.212264,6.624829,-1.182353
103.137006,0.011366,16.812571,4.977071
103.237006,-1.819443,3.513860,16.313068
103.337006,1.296312,6.989734,2.904289
103.437006,-1.378565,-2.027917,-2.980560
103.537006,-3.726821,18.801006,3.604189
103.637006,5.486144,2.581856,13.211073
103.737006,-0.381655,10.654043,-10.158131
103.837006,0.258425,7.607381,-3.707679
103.937006,-2.530709,12.184552,3.884149
104.037006,2.610271,5.398806,5.263911
104.137006,-5.780760,7.686046,-6.790233
104.237006,0.122931,11.723037,3.340081
104.337006,2.587240,8.401798,8.285149
104.437006,-1.759024,9.402896,5.143970
104.537006,0.274576,13.971691,5.532505
104.637006,-2.181955,6.234499,-3.378067
104.737006,1.514058,7.571489,7.588837
104.837006,-8.421539,11.062019,8.098209
104.937006,-0.490529,7.461120,6.049953
105.037006,2.165205,8.298010,-1.508974
105.137006,-0.022433,7.179664,-1.307379
105.237006,2.668296,11.944372,2.199004
105.337006,0.125922,12.376875,5.442176
105.437006,-4.357928,10.384252,13.310973
105.537006,3.873681,9.664611,1.633401
105.637006,2.185843,12.739986,2.081157
105.737006,0.206381,4.451248,2.712265
105.837006,-4.502694,11.693425,12.745968
105.937006,-4.350750,10.042078,7.176374
106.037006,4.764708,7.892128,8.772387
106.137006,-4.013062,8.291729,1.850250
106.237006,2.274677,5.083252,11.038689
106.337006,-2.968297,6.624829,2.163411
106.437006,1.953141,8.988040,-7.296015
106.537006,-1.223032,5.987740,8.033304
106.637006,-3.146263,12.318550,6.230013
106.737006,-2.080858,18.601206,0.003290
106.837006,-2.859722,5.325825,-5.966204
106.937006,-5.815456,9.569496,2.426920
107.037006,0.201894,10.814960,5.701199
107.137006,-3.733701,18.751953,5.029115
107.237006,-4.983053,16.762321,-1.609472
107.337006,-1.450649,2.229512,25.984259
107.437006,3.082255,11.778370,4.255635
107.537006,-0.146859,7.710572,3.486941
107.637006,-3.188137,5.244469,12.670894
107.737006,3.669693,7.320542,-3.598506
107.837006,-1.252044,9.659226,12.820445
107.937006,-2.728117,8.469096,3.354737
108.037006,1.183251,10.487144,-9.139686
108.137006,-1.497608,9.138489,0.956531
108.237006,-2.626123,4.803891,0.788734
108.337006,1.672882,15.078372,3.793820
108.437006,2.379961,7.475477,3.552444
108.537006,-1.000499,11.696416,-1.019941
108.637006,-0.915255,5.919843,2.989832
108.737006,-0.573679,5.831907,-2.772085
108.837006,1.039382,12.201601,1.725225
108.937006,1.182054,6.038288,0.393021
109.037006,-0.794716,12.131611,-0.678664
109.137006,-2.111666,13.322040,2.446661
109.237006,2.152045,4.224827,4.338487
109.337006,1.740479,8.211569,3.714857
109.437006,-0.938286,11.665908,3.554239
109.537006,-0.192921,6.244071,-1.096511
109.637006,-2.044966,14.469698,6.912266
109.737006,11.038390,2.140081,-6.796813
109.837006,-8.755338,11.941681,1.013659
109.937006,1.248455,9.423533,-1.126122
110.037006,-3.057130,13.957932,3.030211
110.137006,-1.034896,10.462317,11.030314
110.237006,-4.468596,8.667402,3.105286
110.337006,1.799103,-1.261915,6.999904
110.437006,-6.194120,11.504393,7.030113
110.537006,-6.693024,5.721239,-1.514058
110.637006,0.749552,4.366303,-10.887343
110.737006,-2.011168,12.711870,-6.989734
110.837006,5.156533,7.993523,-4.673781
110.937006,-2.285146,8.326125,8.756235
111.037006,3.634398,9.761221,1.836491
111.137006,-4.095914,15.628721,3.976871
111.237006,2.493919,10.264312,13.718651
111.337006,0.468694,8.980562,7.252944
111.437006,-5.685945,12.105289,5.953941
111.537006,1.588535,1.603490,6.042775
111.637006,-5.023133,15.251851,0.341875
111.737006,3.073282,8.519346,14.008780
111.837006,2.165504,11.132907,-6.374479
111.937006,-0.442373,11.566008,-5.676075
112.037006,-2.251048,3.587439,8.996116
112.137006,-2.688935,7.790731,-1.366003
112.237006,4.611567,12.087942,5.966503
112.337006,1.085743,7.675876,14.501701
112.437006,1.581656,10.032507,5.299504
112.537006,-0.462712,13.393825,7.005886
112.637006,5.627620,6.384649,4.543073
112.737006,-0.808176,4.695615,-8.260622
112.837006,-1.531407,8.696415,7.873882
112.937006,-6.435796,13.576876,1.226621
113.037006,-7.714161,4.657629,6.306284
113.137006,-2.668296,19.159630,-0.859921
113.237006,4.760520,5.798109,17.309380
113.337006,0.518644,8.629715,1.430609
113.437006,-3.320939,13.065410,16.582859
113.537006,2.266900,6.788737,2.629712
113.637006,-3.519543,9.844970,-5.300700
113.737006,0.332004,2.117648,-4.100700
113.837006,-0.157926,10.273883,-2.285744
113.937006,-0.933201,7.546364,-2.121536
114.037006,-4.924130,8.071589,3.919743
114.137006,-0.005982,13.734203,5.021338
114.237006,4.575974,13.557434,-6.796215
114.337006,-3.708875,10.675878,5.551349
114.437006,-3.400500,8.285747,-0.756132
114.537006,1.226322,9.581759,6.536593
114.637006,1.427020,9.000901,-4.908875
114.737006,-0.088534,10.351051,-2.941975
114.837006,3.577569,8.353344,-7.950751
114.937006,-0.105583,8.433503,8.611769
115.037006,-2.856432,5.508876,-6.179165
115.137006,-8.378169,10.977971,2.163710
115.237006,2.363511,8.626724,-4.102195
115.337006,-0.229711,7.456335,-2.469094
115.437006,-0.014955,8.405088,6.285048
115.537006,-1.113859,14.302200,19.433609
115.637006,0.432802,12.972987,0.814158
115.737006,1.355235,16.511972,-1.338485
115.837006,-1.351646,8.353942,6.809973
115.937006,1.686641,11.655738,4.843073
116.037006,0.050548,7.715357,2.402992
116.137006,0.260818,9.434002,3.334099
116.237006,-1.371387,6.975976,2.600400
116.337006,-1.522732,10.392328,8.215756
116.437006,4.706084,8.750852,1.177568
116.537006,-3.515954,7.234699,2.802294
116.637006,-0.012263,8.628220,6.384350
116.737006,-1.392922,13.585251,4.409673
116.837006,-7.032506,11.499308,2.400300
116.937006,0.514158,6.111867,3.219543
117.037006,1.339383,6.485446,2.773880
117.137006,-1.617548,11.424830,4.815257
117.237006,-5.952147,9.821041,-0.816252
117.337006,0.980459,7.450053,4.960620
117.437006,-2.150549,9.585050,7.535896
117.537006,-1.978565,12.660126,-0.948455
117.637006,-0.506680,3.459124,4.706084
117.737006,0.446261,11.839088,14.015361
117.837006,-1.161416,7.802396,-3.686742
117.937006,0.555733,6.008378,-4.368696
118.037006,1.988735,8.041080,3.424727
118.137006,-4.881957,11.823236,6.308677
118.237006,-1.522732,9.392726,-1.516451
118.337006,3.708875,12.160923,-2.395814
118.437006,-1.968396,8.475976,6.595517
118.537006,2.330011,9.686146,-0.810569
118.637006,2.205285,5.559125,-0.658325
118.737006,-1.703092,11.797513,2.700300
118.837006,1.912164,5.237290,-1.452742
118.937006,-2.762813,14.855241,4.523631
119.037006,-4.189234,6.810871,0.272483
119.137006,1.872085,14.030315,10.774282
119.237006,-1.992025,9.737592,12.013166
119.337006,-4.561318,8.343174,7.007680
119.437006,0.543470,7.237989,8.676374
119.537006,1.651646,9.786046,4.818247
119.637006,1.233500,11.721540,10.594522
119.737006,4.418048,5.127520,7.489535
119.837006,-2.097309,9.709775,0.676870
119.937006,-2.904588,7.277770,8.634201
120.037006,-1.882852,10.242777,3.297010
120.137006,3.860520,10.997712,4.363910
120.237006,-0.538684,8.801101,3.543770
120.337006,2.431108,11.226825,12.607184
120.437006,-2.017149,3.371487,1.098605
120.537006,-1.226920,13.855340,14.360525
120.637006,2.188535,4.802096,9.171391
120.737006,-4.806582,15.658033,4.337888
120.837006,2.875575,2.093720,7.545766
120.937006,-0.458824,2.485844,-10.155139
121.037006,-6.656833,17.548063,7.395617
121.137006,2.111666,0.119940,9.046964
121.237006,1.975574,14.162519,-3.191427
121.337006,-3.423830,5.793024,5.960222
121.437006,0.397807,11.088340,6.801299
121.537006,-2.800500,5.481658,5.531010
121.637006,-1.735096,11.073086,3.595814
121.737006,-0.336491,10.117153,6.986145
121.837006,0.960718,11.419447,7.522735
121.937006,-2.011168,7.467102,-6.100502
122.037006,5.803492,0.929612,-13.243376
122.137006,-2.788835,11.319846,-3.452245
122.237006,1.655235,10.016056,-4.351049
122.337006,2.985046,12.366706,12.489038
122.437006,0.221635,9.729815,2.247159
122.537006,-0.181855,8.015656,-0.278166
122.637006,-0.956531,9.513863,-1.684248
122.737006,-4.531408,9.301799,0.889233
122.837006,-3.487240,9.017053,3.592524
122.937006,-2.509772,11.708081,3.972684
123.037006,-0.430708,8.047661,5.092824
123.137006,-3.045166,12.394821,11.845369
123.237006,1.582254,7.338787,8.743074
123.337006,-1.049552,11.117652,-0.746262
123.437006,0.852443,7.787142,12.434004
123.537006,3.192025,6.507580,8.738289
123.637006,-2.920141,11.945569,2.626422
123.737006,-0.706481,9.813564,6.383752
123.837006,-0.008674,10.139287,5.710471
123.937006,-1.672882,6.678368,-0.215055
124.037006,3.754339,11.137991,3.680161
124.137006,-1.553241,9.057133,10.176375
124.237006,1.497608,6.885646,4.251747
124.337006,-1.243670,9.699904,12.527324
124.437006,-4.141378,7.807481,2.331806
124.537006,-1.156631,9.215657,-7.289734
124.637006,-3.206083,11.224731,4.761418
124.737006,-2.017449,7.232306,10.366605
124.837006,-0.632303,11.296515,3.555136
124.937006,6.131907,3.267699,2.538486
125.037006,-4.126722,7.528418,-4.745864
125.137006,1.735096,11.359627,-6.183951
125.237006,0.516252,12.076576,11.473584
125.337006,-6.267401,13.319946,5.032106
125.437006,2.755934,5.686842,5.485247
125.537006,-1.014856,7.412964,2.097907
125.637006,0.484846,7.338787,1.640280
125.737006,6.059524,12.325429,9.422038
125.837006,-0.003888,6.580262,4.307081
125.937006,-2.151447,9.549157,5.066204
126.037006,4.764708,2.742175,-7.183553
126.137006,-8.566903,12.590434,-4.373781
126.237006,7.330113,5.390730,9.600004
126.337006,-1.590330,18.382860,-9.160921
126.437006,-1.292423,6.611070,3.661019
126.537006,3.958028,9.705587,-0.908076
126.637006,-3.947559,8.621938,-1.828715
126.737006,-1.861915,11.193625,1.479662
126.837006,0.374477,9.747163,6.759724
126.937006,-0.539282,6.915556,4.157529
127.037006,-0.124427,7.167700,-7.631310
127.137006,-0.454337,10.764710,3.547359
127.237006,1.998306,8.992527,3.548855
127.337006,-1.701895,10.974681,-2.059921
127.437006,3.203691,9.063713,6.291927
127.537006,-5.327022,10.371092,7.120442
127.637006,-1.189233,9.416355,6.237191
127.737006,-0.610469,6.102296,2.763411
127.837006,-1.117448,10.085448,3.964907
127.937006,2.960520,3.758526,-2.504089
128.037006,-2.416751,7.335497,0.739681
128.137006,5.718547,12.054442,-12.434303
128.237006,-4.001398,9.432507,2.126621
128.337006,1.611566,9.193225,1.861915
128.437006,1.302892,10.890932,-9.189635
128.537006,-4.248456,9.223434,4.718048
128.637006,2.123929,7.229615,-2.486442
128.737006,-5.183751,9.146864,-4.595416
128.837006,-0.821336,13.931013,3.844967
128.937006,2.803491,12.458530,13.243675
129.037006,-0.649950,8.772985,12.082558
129.137006,-0.126820,3.269493,-0.501595
129.237006,-4.853242,11.992528,-1.868196
129.337006,2.013859,11.650654,2.153540
129.437006,-1.433002,11.644372,7.503294
129.537006,0.130708,2.767299,5.434998
129.637006,2.883650,12.619148,8.056634
129.737006,-0.210568,6.864410,12.455240
129.837006,-0.293719,12.311670,-17.787046
129.937006,-6.198906,6.523732,21.029022
130.037006,4.319045,10.187741,14.710774
130.137006,4.760820,6.641878,2.970091
130.237006,-0.577268,5.277071,-1.882852
130.337006,-2.469991,8.282756,1.747060
130.437006,-2.890530,14.556138,-0.342174
130.537006,4.426124,-4.428516,3.125026
130.637006,-2.737090,17.207386,-9.291330
130.737006,1.422832,6.046663,0.300299
130.837006,-0.387936,13.411173,-1.848456
130.937006,3.313760,8.847761,-3.466004
131.037006,-4.054638,8.193324,-1.337588
131.137006,-3.242873,10.926525,-5.665606
131.237006,1.247857,10.035797,9.146864
131.337006,-3.544967,12.229716,-2.037189
131.437006,-0.776172,9.880862,13.936996
131.537006,2.365903,9.101101,2.660819
131.637006,-4.693821,11.774781,-1.357329
131.737006,-2.825624,11.378769,3.931408
131.837006,0.066700,8.435597,-5.954240
131.937006,-0.733101,3.877569,15.346667
132.037006,-2.302195,4.557430,6.347560
132.137006,-0.602991,19.920248,-2.842973
132.237006,4.666303,-7.436295,13.514363
132.337006,-8.040183,18.963718,-8.673085
132.437006,-2.664109,11.300105,27.403801
132.537006,5.569295,11.312368,23.822044
132.637006,-0.590728,5.985347,5.811269
132.737006,4.489234,12.850654,8.112566
132.837006,-2.380260,15.140585,-3.857529
132.937006,4.121039,9.376575,11.354242
133.037006,-2.057827,10.398011,2.786442
133.137006,-4.060620,9.456136,0.416052
133.237006,3.110370,7.782357,7.426125
133.337006,-2.687140,7.179365,2.821437
133.437006,2.762215,9.372088,-2.207080
133.537006,1.941776,8.067102,4.249055
133.637006,-7.085148,24.022444,-22.953152
133.737006,9.389735,-4.215854,13.093226
133.837006,-11.725130,19.301405,-4.718347
133.937006,6.937391,4.049852,12.859029
134.037006,-2.585445,14.733806,6.247062
134.137006,-0.693320,7.444669,6.523433
134.237006,0.227019,8.026125,5.861518
134.337006,-3.177669,7.007979,6.018846
134.437006,-0.262014,10.345070,0.096909
134.537006,-2.660221,7.043572,-1.871486
134.637006,-2.214258,5.661717,2.579463
134.737006,-0.262911,9.372387,3.666103
134.837006,-3.707978,8.119446,8.322237
134.937006,-1.058824,6.193522,3.620042
135.037006,-0.030209,7.311868,6.788139
135.137006,0.603590,6.785447,3.315555
135.237006,-1.768894,10.635200,-0.955334
135.337006,-2.439782,7.472187,0.130409
135.437006,-2.570191,8.630313,4.431807
135.537006,5.407779,-1.610370,-4.063910
135.637006,-2.898306,14.045569,-8.361420
135.737006,0.725623,8.109575,0.800698
135.837006,-0.471386,5.207679,14.166408
135.937006,0.664008,8.504391,-0.608076
136.037006,1.037289,3.343371,14.412569
136.137006,-2.458027,11.956038,-1.328914
136.237006,-7.260721,40.206299,23.984159
136.337006,0.582652,1.861317,5.288437
136.437006,0.575175,20.593828,-10.694721
136.537006,-14.349159,-7.787142,29.016563
136.637006,8.613862,8.526525,5.268397
136.737006,7.996215,13.100405,4.762914
136.837006,-2.749054,10.910374,3.163311
136.937006,-0.844966,10.777871,2.892623
137.037006,2.766701,8.659027,6.854839
137.137006,-4.681558,9.724133,0.294616
137.237006,1.336990,11.492129,0.729512
137.337006,0.647857,9.087940,5.403592
137.437006,-1.127020,9.485448,3.697808
137.537006,0.340977,5.350351,5.181059
137.637006,-3.483950,2.201696,3.152843
137.737006,-2.641676,10.435997,-3.119344
137.837006,1.926222,7.336095,7.492227
137.937006,-5.384748,1.317249,10.735100
138.037006,-0.701396,12.000304,2.090430
138.137006,3.186941,5.599504,10.292427
138.237006,-1.701895,8.928518,5.017450
138.337006,-1.741078,9.785748,2.137389
138.437006,-1.500001,8.920144,4.944768
138.537006,4.449454,6.774081,3.224927
138.637006,-1.197309,8.882756,2.572883
138.737006,-0.079860,7.210472,3.543770
138.837006,-4.173382,9.278768,-1.297807
138.937006,18.611673,-30.546774,24.736403
139.037006,-8.197512,17.404495,-7.833503
139.137006,8.632108,4.976473,10.721640
139.237006,-0.110369,25.209583,-44.982372
139.337006,0.462712,4.851448,13.873885
139.437006,2.672484,18.126230,28.166513
139.537006,0.928415,1.044467,12.333506
139.637006,-2.228615,10.741082,-5.794519
139.737006,5.824728,23.319551,-10.258629
139.837006,1.544866,11.065907,-11.808879
139.937006,2.365903,9.830912,4.409972
140.037006,-2.095515,9.457931,10.346864
140.137006,2.119443,6.166304,2.742773
140.237006,-1.685744,10.939985,-1.162613
140.337006,-0.018544,11.620743,1.254736
140.437006,4.381856,8.545368,5.823532
140.537006,1.448256,6.102595,4.775775
140.637006,-1.136292,10.226624,3.378965
140.737006,0.064606,9.012866,2.590829
140.837006,4.462914,-4.067200,-5.934499
140.937006,0.656531,18.250956,-6.067600
141.037006,-6.570990,1.828715,-4.254139
141.137006,-3.633202,-7.063014,9.779466
141.237006,0.640678,18.714865,5.207081
141.337006,3.045465,4.844569,21.459133
141.437006,-3.606283,15.434604,5.543572
141.537006,-3.838387,10.303494,11.510374
141.637006,1.070788,9.684352,9.789336
141.737006,-2.385046,5.407779,8.997611
141.837006,-9.528519,13.215261,12.429218
141.937006,1.822134,5.471488,3.396612
142.037006,5.349753,5.632405,7.103992
142.137006,-0.792323,11.650654,6.786942
142.237006,-0.208774,9.247960,4.430610
142.337006,0.273978,13.103994,2.432005
142.437006,-0.656830,12.240784,3.538387
142.537006,-0.819841,8.642277,-2.825325
142.637006,-0.034397,14.981762,-6.864111
142.737006,-7.951948,10.687542,8.664411
142.837006,2.770290,6.738189,-5.570790
142.937006,-1.596312,12.006586,-7.898109
143.037006,0.763011,6.976274,5.137989
143.137006,1.415953,13.553844,5.096413
143.237006,0.059821,12.286247,6.508777
143.337006,-0.602692,5.760421,-2.584847
143.437006,-2.352743,11.186147,9.891630
143.537006,1.013959,6.241977,6.843473
143.637006,-0.120838,15.441782,2.985046
143.737006,5.695217,4.420142,8.260921
143.837006,-3.417549,12.626925,8.535498
143.937006,-2.364707,3.127718,-0.023031
144.037006,-7.900203,12.714562,5.766404
144.137006,-2.471487,9.376874,14.602499
144.237006,0.739980,8.605188,7.575975
144.337006,-3.034697,8.839087,16.367804
144.437006,-0.535992,0.465404,4.362116
144.537006,-1.095015,14.932709,1.633999
144.637006,0.741177,3.413661,20.118853
144.737006,-1.767997,15.093028,-3.815655
144.837006,-2.161317,16.537695,28.792536
144.937006,4.092624,0.675075,2.956033
145.037006,1.212862,1.797309,-17.660227
145.137006,-4.680361,11.359028,-2.159822
145.237006,5.518746,8.993723,-2.295913
145.337006,-3.574877,17.089241,-18.136698
145.437006,-0.354736,10.744073,2.079064
145.537006,1.138685,11.300703,0.466002
145.637006,2.100300,18.900906,4.348955
145.737006,-1.762015,1.776671,17.246269
145.837006,7.204789,12.006885,-21.502203
145.937006,-0.359522,6.847361,4.986941
146.037006,-0.272483,11.297413,7.394719
146.137006,-4.124628,14.835799,0.358624
146.237006,-0.493819,10.167702,11.573784
146.337006,-3.703790,5.976972,-6.471090
146.437006,-1.018744,7.284948,6.742974
146.537006,2.232803,10.561620,0.923630
146.637006,-0.972383,10.451550,0.946960
146.737006,-2.603690,10.175478,0.905085
146.837006,3.865605,11.078769,12.378969
146.937006,-5.292027,3.901198,-5.063512
147.037006,-3.690929,16.558632,-2.173281
147.137006,5.361119,-7.526923,-10.228121
147.237006,-6.559923,21.005394,-12.704692
147.337006,1.437189,10.984551,22.334307
147.437006,-3.990929,19.657337,-4.095017
147.537006,1.753042,7.259525,-2.311167
147.637006,-4.430311,8.863315,18.093029
147.737006,-7.563114,-0.831207,-4.915755
147.837006,0.813859,13.730315,-1.159323
147.937006,-9.117252,-0.987039,13.403695
148.037006,7.964211,8.112566,-14.707784
148.137006,-5.825925,23.263321,14.510674
148.237006,0.544068,8.639286,13.523934
148.337006,-5.993423,17.812771,18.297915
148.437006,-0.693021,-10.806885,19.457537
148.537006,-9.184550,18.884455,9.961021
148.637006,6.558129,-1.407578,18.972391
148.737006,3.960720,3.054737,2.096711
148.837006,0.297906,26.611776,5.885447
148.937006,-1.928316,3.684349,15.776478
149.037006,-8.329715,11.710474,13.387843
149.137006,5.484350,3.271886,11.557333
149.237006,3.859324,17.120049,4.352843
149.337006,-1.316950,12.874882,16.561623
149.437006,4.101597,4.527520,-11.226227
149.537006,-2.866901,6.959226,-9.145967
149.637006,-2.716452,16.773088,16.650455
149.737006,1.615754,6.093921,5.210969
149.837006,-2.485245,24.664318,2.900400
149.937006,1.140778,3.775276,20.188843
150.037006,-5.105386,9.086744,-4.174877
150.137006,-1.437787,16.140186,-2.075475
150.237006,-0.699302,8.434102,9.466904
150.337006,-0.354138,10.421041,4.558626
150.437006,0.592523,6.191130,10.997413
150.537006,-3.807280,18.073887,-1.380360
150.637006,3.224628,-0.393619,2.138286
150.737006,3.537190,13.322040,-4.275974
150.837006,-1.240978,-3.287738,-6.709475
150.937006,-2.042573,14.942280,-7.693523
151.037006,-2.593221,6.749555,4.434798
151.137006,-0.304786,11.423635,-7.861320
151.237006,-4.979464,1.489532,10.787144
151.337006,3.660121,17.984755,2.501995
151.437006,-2.286043,5.090132,3.712464
151.537006,7.907980,6.587740,-8.928220
151.637006,0.489631,4.780560,14.411971
151.737006,-3.958028,6.886843,-20.159830
151.837006,-0.069392,13.705789,-0.078664
151.937006,0.053539,7.192526,7.517950
152.037006,-0.448654,12.196815,-3.240181
152.137006,2.415854,12.371192,9.488738
152.237006,0.031107,11.347961,-8.723334
152.337006,2.217848,11.529218,8.132905
152.437006,1.459024,8.725129,13.530814
152.537006,-0.151047,10.693225,-3.914060
152.637006,2.528615,13.679169,9.029316
152.737006,-3.588935,10.850254,-2.570490
152.837006,-0.307478,3.035894,22.890938
152.937006,0.760319,22.478775,8.145766
153.037006,0.524626,-4.951647,-2.096412
153.137006,-0.978066,16.947765,-11.062019
153.237006,1.333101,9.550952,9.366704
153.337006,0.353540,9.396316,-5.538188
153.437006,-3.116652,8.388040,-9.634102
153.537006,2.997309,7.864909,1.227219
153.637006,1.928316,4.976772,-7.052845
153.737006,-3.376273,18.705891,9.768100
153.837006,-1.019941,7.196115,8.737990
153.937006,-6.793522,17.962322,8.088039
154.037006,-2.816352,7.294221,26.566612
154.137006,1.454537,13.614563,18.917656
154.237006,-1.064806,2.760121,2.773581
154.337006,3.982255,10.021141,9.009576
154.437006,-2.577668,16.739887,13.598112
154.537006,-3.057130,6.212964,0.344866
154.637006,0.364905,10.282557,4.604389
154.737006,0.159123,9.674481,14.686847
154.837006,-1.205683,1.842174,-1.655534
154.937006,-7.261320,20.772392,19.229321
155.037006,-0.908076,3.062813,-5.203193
155.137006,-0.871287,12.024233,-5.856134
155.237006,0.329312,13.949558,3.124727
155.337006,-0.559322,3.891029,1.958226
155.437006,-0.065204,8.502297,0.395713
155.537006,-6.868896,6.789036,-1.421636
155.637006,2.512763,5.965606,5.102993
155.737006,0.196511,13.634303,15.308382
155.837006,0.669392,9.419945,11.274681
155.937006,2.277070,-0.850648,-1.039083
156.037006,0.989731,10.102797,-12.268002
156.137006,-3.522833,6.309275,5.903991
156.237006,7.279864,7.790133,6.373582
156.337006,-4.046263,6.409474,1.019941
156.437006,0.027817,10.577173,7.994122
156.537006,1.780858,5.149354,-20.592333
156.637006,-5.970990,11.525330,4.912465
156.737006,-2.183151,6.527919,15.905092
156.837006,3.049952,3.819244,-23.331217
156.937006,-3.048456,14.902799,6.258428
157.037006,-0.946660,7.958528,-0.108873
157.137006,2.305784,29.630024,14.946169
157.237006,0.340080,-9.629616,-2.441875
157.337006,-2.623730,14.610575,-17.474186
157.437006,3.058027,-1.725225,-6.358328
157.537006,-1.871486,18.383459,-2.024029
157.637006,-2.557628,18.064316,-9.605089
157.737006,1.500599,9.486943,-5.147560
157.837006,-2.089832,14.131711,-5.743971
157.937006,-3.601497,8.046763,26.419155
158.037006,0.484846,7.963314,-2.251945
158.137006,0.465703,5.445466,-6.912865
158.237006,3.639483,6.186344,-18.316460
158.337006,-9.502796,29.827730,8.306684
158.437006,8.222935,-6.990332,10.776675
158.537006,-2.303092,8.095517,1.198206
158.637006,-2.033002,13.464413,-14.357534
158.737006,-4.475476,13.085749,12.251252
158.837006,1.833500,8.341081,0.309871
158.937006,-2.954239,10.908878,16.961823
159.037006,4.160221,5.949454,17.034803
159.137006,-2.981457,3.026921,-10.437193
159.237006,-2.620440,10.575678,10.631012
159.337006,-2.052743,8.339286,20.688345
159.437006,-3.876971,5.313562,6.381658
159.537006,11.805888,7.282257,-0.218345
159.637006,-6.154639,26.690741,5.352744
159.737006,4.471587,11.178669,25.937899
159.837006,-1.037887,5.228018,-2.442175
159.937006,-1.027119,13.004992,1.889133
160.037006,-2.277668,16.860426,-10.016056
160.137006,2.154737,15.851851,20.687149
160.237006,3.759423,15.891932,24.105894
160.337006,-2.035096,-0.831506,13.337893
160.437006,4.137190,5.653642,-20.271395
160.537006,0.321835,23.147268,8.440383
160.637006,0.029312,-9.961619,-13.334902
160.737006,-0.348156,16.419847,3.870989
160.837006,5.723333,1.347458,-10.797014
160.937006,-0.824028,2.124228,11.121840
161.037006,-3.296711,22.685453,2.045265
161.137006,-0.729512,-0.411865,10.163814
161.237006,3.739982,10.649257,-0.133400
161.337006,-0.772283,10.930115,5.416453
161.437006,-5.680561,14.964414,13.076776
161.537006,3.142972,4.441079,15.099010
161.637006,-1.759323,13.880764,-4.757230
161.737006,0.049651,11.113166,-7.480861
161.837006,-4.891528,11.570195,-9.059525
161.937006,-5.520242,18.502201,21.508783
162.037006,-0.069990,-3.571886,4.523930
162.137006,-8.239386,12.249757,-10.922039
162.237006,5.229215,15.446268,-2.298007
162.337006,-3.790829,2.008476,4.573282
162.437006,2.314159,10.098310,9.826426
162.537006,6.385247,1.303789,-7.796414
162.637006,-1.670788,5.731708,-9.771091
162.737006,-7.031010,19.671097,23.405693
162.837006,10.852946,1.389632,17.309679
162.937006,1.890629,-16.252649,9.556335
163.037006,0.446261,28.578976,-33.449566
163.137006,-10.525129,-14.371293,23.393431
163.237006,-4.160820,16.904095,-13.803895
163.337006,1.746162,-21.440289,30.950861
163.437006,-2.024328,24.463022,-6.227022
163.537006,1.199103,1.354637,8.578867
163.637006,3.016153,11.664711,20.227726
163.737006,3.574578,1.794019,-34.367214
163.837006,-2.624627,22.505993,8.729915
163.937006,-0.493221,1.994418,3.550650
164.037006,2.127219,5.833403,-11.381461
164.137006,-3.707080,20.708384,-16.469500
164.237006,-0.826421,6.045167,-4.612764
164.337006,3.181258,9.396614,-7.936395
164.437006,-2.170589,10.392627,10.737493
164.537006,1.179063,2.746362,18.547068
164.637006,-7.559226,33.600914,-9.875179
164.737006,6.487241,-3.305086,22.518555
164.837006,-5.876772,-5.860621,20.231615
164.937006,5.025825,12.527623,-9.334401
165.037006,-4.832604,11.543276,7.586444
165.137006,3.579064,5.671887,-6.277271
165.237006,-0.975374,6.513562,-12.706187
165.337006,-1.063610,13.025330,-6.497112
165.437006,-3.387938,12.821342,0.632603
165.537006,1.607678,7.504789,3.276971
165.637006,-1.643570,10.764710,1.352543
165.737006,8.754440,3.782155,-9.149555
165.837006,-6.021837,19.202103,-2.043770
165.937006,2.140081,-5.213362,1.071685
166.037006,0.999003,19.552353,-14.622540
166.137006,2.159523,6.412765,1.143470
166.237006,1.158724,1.584348,-7.773384
166.337006,-3.165405,12.675080,13.878371
166.437006,7.272985,3.931707,0.464806
166.537006,-3.778865,17.131712,-5.404788
166.637006,0.705883,7.361519,21.314667
166.737006,1.931008,10.280463,5.176573
166.837006,-2.335096,6.881758,-8.283054
166.937006,-5.132006,6.641578,-2.693720
167.037006,-1.448256,5.198108,4.344170
167.137006,-3.391228,18.391535,11.997911
167.237006,-3.583551,8.685946,15.722639
167.337006,3.102893,15.662819,12.463316
167.437006,-1.025624,2.900998,15.830615
167.537006,-4.011866,18.425632,-11.248360
167.637006,4.994718,1.138984,26.804399
167.737006,-2.041975,2.706282,13.910076
167.837006,-1.981855,14.326128,6.766902
167.937006,3.480062,6.938288,14.863317
168.037006,-3.168097,8.743673,10.020543
168.137006,2.445465,9.608379,1.079462
168.237006,5.259723,5.620142,-0.354138
168.337006,-0.300598,4.641777,-7.999804
168.437006,-3.977469,16.520346,-3.282654
168.537006,1.849951,2.191826,11.962916
168.637006,8.523534,5.329115,9.067303
168.737006,-5.330910,11.666206,1.342074
168.837006,1.696511,17.719151,6.595816
168.937006,-3.941876,5.858527,2.541477
169.037006,5.565107,1.362413,-5.579464
169.137006,-2.724528,17.532810,-15.456438
169.237006,-2.802294,3.584448,9.694521
169.337006,-9.898808,19.372292,5.674878
169.437006,3.643372,2.850450,-0.136391
169.537006,-0.686740,11.909677,-9.690035
169.637006,-5.808876,9.231211,17.713469
169.737006,2.325225,6.965806,8.664411
169.837006,2.233700,14.158630,-10.621441
169.937006,-3.190231,9.059525,6.230611
170.037006,2.162214,3.655037,9.087342
170.137006,0.870090,14.744574,-4.562814
170.237006,2.612663,4.030710,12.142079
170.337006,-0.539881,18.736998,-0.262612
170.437006,0.174975,13.380365,-4.945665
170.537006,-3.767798,8.439486,12.430714
170.637006,1.472483,6.533303,2.946761
170.737006,2.081756,11.043475,2.739782
170.837006,4.479962,5.805287,5.239983
170.937006,-2.297708,5.194818,-8.781061
171.037006,2.383550,20.183161,-2.626123
171.137006,0.355334,5.463113,0.159422
171.237006,2.933900,3.010769,-29.700911
171.337006,-7.496115,19.906191,1.735993
171.437006,0.412463,-5.321339,10.710873
171.537006,-7.518847,29.904600,5.232505
171.637006,10.306785,-5.710471,3.015854
171.737006,-2.239981,18.823738,-23.923740
171.837006,-7.064510,8.387741,9.197412
171.937006,2.773880,10.229317,4.528417
172.037006,-2.250450,6.810272,-6.561120
172.137006,-0.077767,13.996816,-2.689832
172.237006,-2.536392,10.205090,11.607284
172.337006,1.614856,18.524933,-6.182755
172.437006,-4.644768,2.745764,-5.210969
172.537006,3.662813,19.531414,2.380260
172.637006,3.526123,-6.336792,15.003896
172.737006,-3.920939,19.072292,-12.842578
172.837006,4.861019,-4.094419,-13.344173
172.937006,-7.621439,18.270996,-0.736690
173.037006,0.632603,-1.201197,17.241184
173.137006,-0.675075,19.916361,-4.167100
173.237006,-0.653241,9.430114,6.214758
173.337006,-2.009672,11.741879,11.863316
173.437006,-0.737288,3.733402,2.724528
173.537006,0.554537,20.886650,13.042379
173.637006,4.291527,-5.145466,8.564810
173.737006,-10.192826,14.952450,-22.633709
173.837006,4.839484,9.381958,-10.461421
173.937006,-8.004889,15.132509,3.239882
174.037006,1.123430,12.154642,-7.702197
174.137006,-10.943275,10.172188,0.450150
174.237006,7.374380,4.991129,13.773088
174.337006,-7.871789,5.138288,-5.675177
174.437006,-0.359821,18.995722,9.740882
174.537006,0.499203,-1.738386,6.126224
174.637006,-2.025225,11.936894,-9.173783
174.737006,0.960419,1.455434,9.945767
174.837006,-2.959323,10.588839,-4.010969
174.937006,1.077368,5.709873,-3.580261
175.037006,0.186341,8.850154,-14.787045
175.137006,-3.530610,9.793225,-5.329414
175.237006,1.721636,15.534504,9.614960
175.337006,6.110671,7.631908,9.727123
175.437006,-3.633202,5.982655,-0.503091
175.537006,-3.984349,4.190132,6.150152
175.637006,-6.290731,7.630113,-9.974780
175.737006,-1.591526,15.565311,4.314559
175.837006,2.619243,2.695515,14.073984
175.937006,3.245864,14.941084,-7.340282
176.037006,-1.159622,12.483356,-1.824826
176.137006,-1.974677,12.118750,-16.235899
176.237006,-1.799702,2.639882,17.480467
176.337006,0.108574,7.024430,1.345065
176.437006,4.659424,2.364408,-3.980460
176.537006,-1.345963,7.552347,-7.820343
176.637006,-1.926222,15.718452,-10.892129
176.737006,-1.939383,7.126125,-1.299303
176.837006,1.667199,10.489237,2.255235
176.937006,4.506582,8.261519,-2.199901
177.037006,-3.893721,14.111671,3.190530
177.137006,0.764507,5.584848,1.173979
177.237006,-2.280360,16.345371,4.421936
177.337006,-5.048257,5.822336,9.072986
177.437006,4.585247,12.129816,-5.400601
177.537006,-4.835296,16.058830,15.068801
177.637006,12.390933,-5.257929,11.316854
177.737006,-8.765806,14.117952,-16.322340
177.837006,0.106780,2.533102,6.259624
177.937006,-1.396212,20.914766,-11.548061
178.037006,1.945664,5.253143,22.552353
178.137006,-0.862014,-2.221736,-17.795721
178.237006,-3.786642,13.392927,-3.712464
178.337006,-0.183948,0.218943,3.659224
178.437006,4.561318,20.439491,-11.670394
178.537006,-2.119443,13.820644,8.119446
178.637006,1.579562,11.694323,12.446267
178.737006,0.299103,12.484253,-0.239282
178.837006,4.793422,9.091230,-7.348059
178.937006,-4.080959,13.759927,-12.032309
179.037006,-2.612364,9.495019,12.422937
179.137006,-6.637690,14.118252,13.401900
179.237006,3.327519,-4.436892,13.687544
179.337006,-1.961217,13.543675,-3.633501
179.437006,-1.916053,3.785445,14.662619
179.537006,1.170090,11.448161,5.732007
179.637006,1.589732,-3.977469,-6.284450
179.737006,-4.383352,15.903297,-7.075277
179.837006,1.096810,6.925427,9.051450
179.937006,-0.623031,13.715061,-2.576771
180.037006,3.506682,5.874978,4.706981
180.137006,-4.886742,18.546469,-1.796113
180.237006,-2.202892,6.780661,10.703993
180.337006,1.071386,6.432805,10.127024
180.437006,3.523731,14.937494,1.604687
180.537006,-1.382453,5.274080,0.439083
180.637006,0.120838,7.788638,1.390230
180.737006,0.538086,5.398208,7.103094
180.837006,1.627419,11.234303,0.537189
180.937006,-3.913760,15.357435,-4.326821
181.037006,-0.501895,8.796016,19.144974
181.137006,-2.003092,2.696412,-0.687039
181.237006,-8.895318,9.393025,-10.972886
181.337006,4.406084,8.357830,8.023732
181.437006,-3.947260,11.318051,0.322134
181.537006,-0.043669,10.051051,8.449655
181.637006,-4.194917,5.885147,7.039983
181.737006,-0.833600,9.516255,2.689234
181.837006,-1.441077,8.509176,6.928717
181.937006,-4.867301,6.968199,4.347460
182.037006,1.252044,6.785447,5.564808
182.137006,-2.088934,13.840385,2.257329
182.237006,1.473680,6.715158,1.144667
182.337006,-4.129414,12.086446,4.668696
182.437006,8.254341,7.441380,0.137587
182.537006,-5.990431,7.167999,7.034300
182.637006,1.593620,10.616954,-5.191229
182.737006,0.964308,8.351849,3.776173
182.837006,0.936491,10.637891,3.596412
182.937006,-3.621238,9.905089,11.868999
183.037006,1.084846,6.225227,2.242972
183.137006,-0.559322,10.462916,-3.053242
183.237006,2.330908,13.314563,-8.954242
183.337006,-3.908077,6.489036,5.071289
183.437006,-0.358923,7.708179,1.309472
183.537006,-0.524925,12.097513,3.555136
183.637006,0.860818,4.801797,4.079165
183.737006,3.028416,13.910974,0.214158
183.837006,-1.144667,9.865009,3.434000
183.937006,-1.161715,8.100004,0.216850
184.037006,-0.728315,7.903493,5.625825
184.137006,0.127418,8.657532,2.093122
184.237006,-1.513759,6.083453,-1.018445
184.337006,-0.864706,11.719747,-2.483152
184.437006,-1.230210,10.665409,2.434099
184.537006,-7.129714,7.426125,3.660720
184.637006,3.327519,6.939485,1.838884
184.737006,-1.025324,13.876576,-5.598009
184.837006,-0.695713,8.087142,12.294024
184.937006,3.044568,6.042176,4.855037
185.037006,-3.445964,12.344273,5.685347
185.137006,1.818246,8.099405,5.495416
185.237006,-0.813261,9.195318,-1.322334
185.337006,2.231905,9.038289,0.859921
185.437006,-4.602594,9.236594,-2.957230
185.537006,-1.408475,12.743575,9.475877
185.637006,2.165804,7.843673,5.368896
185.737006,-2.275275,11.013266,-0.589831
185.837006,1.865205,8.430812,-1.095015
185.937006,0.804886,10.764112,7.126723
186.037006,4.153940,3.399902,1.107578
186.137006,-1.662114,15.201303,4.513163
186.237006,0.418146,9.534501,4.820640
186.337006,-0.299402,7.633403,1.403091
186.437006,-3.576971,7.531110,5.135296
186.537006,-0.535693,9.142078,0.903889
186.637006,4.847559,9.000603,6.789634
186.737006,-2.981158,7.942676,-3.919743
186.837006,-0.766002,8.892925,6.236294
186.937006,-3.570390,10.593924,9.535099
187.037006,-2.170589,8.197512,8.157731
187.137006,-0.749253,9.250353,-7.064210
187.237006,-3.323930,16.190735,11.212468
187.337006,-0.957727,2.820240,7.588239
187.437006,-5.952446,14.652150,2.094318
187.537006,4.272385,5.558228,10.594820
187.637006,-2.765206,12.081062,11.070394
187.737006,0.661915,5.158627,-1.115654
187.837006,-1.456033,13.415958,5.238487
187.937006,-3.690630,3.349054,13.359129
188.037006,2.711666,14.377275,2.451746
188.137006,-1.356132,9.761221,0.589831
188.237006,3.888636,11.504991,5.600102
188.337006,-2.384747,4.439583,6.320641
188.437006,-0.550349,12.368501,2.904887
188.537006,4.274778,7.542177,10.006186
188.637006,-1.066002,7.612765,-4.948357
188.737006,1.028016,11.857633,-7.920542
188.837006,-1.082154,10.552647,12.470794
188.937006,0.260219,10.386645,5.416154
189.037006,-0.388235,7.772486,2.301895
189.137006,2.944368,7.972287,6.180063
189.237006,-3.330510,7.707581,4.220939
189.337006,1.893321,9.657731,0.507278
189.437006,-4.135396,5.607580,2.353042
189.537006,-2.791527,17.744574,11.015957
189.637006,2.941078,1.097707,11.207084
189.737006,-0.507877,13.194622,-5.348856
189.837006,-3.340679,6.486643,11.426925
189.937006,2.816053,4.019344,4.112066
190.037006,-1.141376,10.361819,7.216454
190.137006,-0.500399,6.957431,8.417352
190.237006,1.107877,9.411869,7.137790
190.337006,2.261517,9.683455,2.012364
190.437006,-5.273183,7.384849,-1.230808
190.537006,-0.529711,12.076277,-2.026721
190.637006,0.745364,3.895814,-4.371089
190.737006,-2.059622,14.124533,-3.484249
190.837006,4.242774,5.484350,5.258228
190.937006,-5.370092,12.632010,5.015954
191.037006,0.017946,7.035796,3.073282
191.137006,-2.236691,11.150254,1.230210
191.237006,0.026919,4.219743,1.957030
191.337006,-1.571187,16.514963,-9.427123
191.437006,-0.069392,7.253842,-3.002693
191.537006,-2.717349,12.845868,10.974083
191.637006,-4.502694,4.140779,1.896910
191.737006,3.210869,5.813363,2.314159
191.837006,-3.305984,9.238688,3.952046
191.937006,1.428216,10.687243,10.402198
192.037006,0.291625,10.698609,2.164607
192.137006,4.575376,11.813964,-1.107877
192.237006,-0.748953,7.761419,10.727921
192.337006,-2.329114,8.137093,1.797010
192.437006,-2.049752,14.991931,8.754740
192.537006,-2.223531,4.568198,6.013463
192.637006,1.743171,9.273982,2.251646
192.737006,-2.827419,8.959925,9.379267
192.837006,-2.607877,10.982757,-1.295414
192.937006,4.945665,10.471291,2.123331
193.037006,3.257828,12.208480,13.111771
193.137006,-1.638186,5.295317,4.072883
193.237006,0.297308,2.377269,-13.465610
193.337006,-3.507280,20.927925,-3.375376
193.437006,11.576476,-2.819642,14.680266
193.537006,-7.247561,15.343078,-7.766504
193.637006,-2.827718,6.573981,9.519247
193.737006,2.744268,8.734101,-7.138388
193.837006,-1.581357,11.641681,-1.032503
193.937006,-5.793921,12.649358,8.571689
194.037006,2.266003,6.943373,5.320441
194.137006,-2.564508,12.830315,1.357030
194.237006,-1.059721,13.251751,7.618448
194.337006,0.279063,7.526325,4.955536
194.437006,-2.167000,9.165109,3.618247
194.537006,4.907979,7.789236,7.365706
194.637006,-6.349056,11.963515,6.234200
194.737006,5.106284,6.224629,4.888536
194.837006,-7.960023,11.743376,5.660521
194.937006,-1.785644,5.724230,4.112963
195.037006,-2.241477,10.495219,5.023133
195.137006,-1.198804,6.980761,6.444469
195.237006,3.155535,11.006685,11.752947
195.337006,-2.927918,8.402995,8.353643
195.437006,0.400200,9.204889,5.754439
195.537006,-2.146362,4.081258,9.257233
195.637006,2.478665,11.487942,-8.472386
195.737006,0.735195,15.922141,-7.967800
195.837006,1.247558,3.930809,7.216155
195.937006,-0.422333,4.097709,10.501202
196.037006,1.718944,10.163514,-3.744767
196.137006,5.253442,7.064809,-0.006281
196.237006,-1.590330,9.639486,-1.363012
196.337006,-0.588036,11.822040,5.959923
196.437006,-1.463809,8.531011,2.475076
196.537006,-0.665504,7.650452,6.736693
196.637006,-6.107680,10.793126,2.255235
196.737006,1.219143,8.595019,9.757631
196.837006,0.713958,13.836497,-5.308776
196.937006,-2.949453,11.036895,-0.632303
197.037006,2.217548,10.225728,11.402099
197.137006,-0.323330,8.324331,0.670888
197.237006,-3.879663,9.859028,7.136893
197.337006,2.811567,3.710969,10.539187
197.437006,-2.336591,10.961820,-3.404388
197.537006,-0.712762,10.520344,-0.791725
197.637006,1.551446,10.195219,-0.393320
197.737006,-0.268295,9.848558,4.282854
197.837006,-5.415257,21.193829,-5.739783
197.937006,-1.108475,8.870493,9.544970
198.037006,-1.279263,4.587639,8.237890
198.137006,2.137688,5.164310,1.005584
198.237006,4.727320,8.283952,0.771087
198.337006,-3.644568,10.543973,3.274877
198.437006,4.681258,8.513064,-4.848158
198.537006,-4.593322,12.102299,-10.316356
198.637006,-7.771888,9.412467,-2.895016
198.737006,2.807678,15.986747,-8.831610
198.837006,-4.607380,12.344273,9.577572
198.937006,-0.622134,7.840383,14.080565
199.037006,3.416353,8.864211,7.274181
199.137006,-1.382154,9.121440,7.786245
199.237006,0.682254,7.867302,5.067400
199.337006,1.830210,2.784946,-1.892424
199.437006,-0.724726,10.649257,-7.507780
199.537006,-2.996113,5.813961,-4.531109
199.637006,-1.199103,15.870397,5.263612
199.737006,1.468894,5.542974,7.510771
199.837006,-1.673779,9.760024,-6.340083
199.937006,-0.147757,12.612867,6.537490
200.037006,-2.563311,10.683355,2.535196
200.137006,1.491626,7.072885,-4.716553
200.237006,-0.633799,9.380164,-2.630610
200.337006,-7.053144,12.477374,-6.268597
200.437006,3.626024,5.365007,6.405885
200.537006,3.640381,11.060225,-7.838887
200.637006,-2.269891,8.387741,10.049556
200.737006,2.745465,8.615657,10.972886
200.837006,1.125225,6.072086,-0.247956
200.937006,-4.143172,12.445968,1.621736
201.037006,2.494518,7.509275,9.360423
201.137006,2.184049,9.613464,-6.556035
201.237006,-3.274578,10.395917,4.750650
201.337006,6.028717,4.827520,0.507278
201.437006,-1.447957,13.568501,3.550351
201.537006,1.683351,4.240680,-0.943669
201.637006,-0.109173,14.878572,4.894818
201.737006,-3.522235,8.183753,0.417548
201.837006,6.094519,13.983656,-6.284749
201.937006,-1.506581,5.548059,10.900205
202.037006,-2.124228,3.925127,-10.893924
202.137006,-1.461416,14.300106,-3.655934
202.237006,-2.079363,7.018448,2.604588
202.337006,-1.990230,8.483752,-1.337887
202.437006,-0.017348,10.106087,3.614957
202.537006,-3.343072,10.069596,4.802096
202.637006,1.686043,8.577073,-5.118547
202.737006,0.391825,5.748457,-1.029811
202.837006,2.881856,10.020543,-8.188239
202.937006,4.358826,5.923432,-5.951548
203.037006,-5.878567,19.460827,12.551850
203.137006,4.070191,1.170988,1.752144
203.237006,-6.525228,10.281959,-2.514857
203.337006,3.391826,9.166306,4.806283
203.437006,-2.456532,6.786045,3.186342
203.537006,1.185644,6.139086,-5.622834
203.637006,-1.543969,9.866206,-3.678666
203.737006,-5.525925,9.353843,-2.653341
203.837006,1.053440,11.751451,1.795215
203.937006,-3.124428,6.541678,1.728216
204.037006,-2.474179,10.561022,1.714756
204.137006,2.065006,6.317052,10.200603
204.237006,-0.460020,8.211868,4.893023
204.337006,-2.600699,10.074680,-0.007777
204.437006,5.229514,8.943174,3.147160
204.537006,-2.542673,10.982757,9.293424
204.637006,4.554439,10.918749,0.129212
204.737006,-1.105185,10.232906,9.591331
204.837006,-2.236990,9.599107,2.589632
204.937006,-2.045564,7.097411,1.951646
205.037006,0.241376,7.945368,3.938885
205.137006,-3.844668,10.284950,-4.960321
205.237006,0.677468,10.958230,0.766301
205.337006,-2.125724,9.135498,-0.910469
205.437006,-4.093821,10.604392,1.147358
205.537006,1.349851,7.500003,9.087642
205.637006,-1.507179,12.702000,3.452245
205.737006,1.278066,8.328518,4.127021
205.837006,2.045863,3.272185,14.131711
205.937006,-4.677969,11.634203,8.635098
206.037006,-0.171087,4.276572,6.064609
206.137006,4.013960,6.423831,-2.222932
206.237006,-6.387640,11.995220,-3.446562
206.337006,7.689934,5.026423,12.145967
206.437006,-4.096811,14.309678,3.099603
206.537006,-1.831706,10.923834,9.493524
206.637006,1.582553,8.280662,-2.181656
206.737006,-5.330910,14.051252,13.994722
206.837006,2.091925,3.965505,11.155339
206.937006,-1.235295,7.425826,-12.292528
207.037006,1.187737,10.995917,3.290131
207.137006,0.306281,9.356535,-0.703490
207.237006,-0.452842,9.849755,4.984250
207.337006,-0.488734,13.976477,9.654142
207.437006,-0.067298,4.885845,1.887638
207.537006,-3.697509,12.792927,-1.536491
207.637006,-5.459524,9.747163,3.018247
207.737006,-0.734896,9.490832,1.104587
207.837006,-2.201696,11.511271,-2.720938
207.937006,7.531110,-2.619543,4.116253
208.037006,0.947558,13.124034,-2.836093
208.137006,0.240180,-0.686740,3.432504
208.237006,-4.399204,23.114666,-6.463911
208.337006,2.227419,11.732010,33.338001
208.437006,2.396412,5.214559,17.384754
208.537006,0.005384,5.393422,3.671786
208.637006,-8.804690,14.876179,3.008675
208.737006,2.886043,6.309275,12.549757
208.837006,-1.714756,11.092827,2.137688
208.937006,-0.567697,7.232306,14.902201
209.037006,-1.949253,6.587142,-11.239686
209.137006,-3.694219,17.536997,-3.090330
209.237006,2.440081,10.737493,12.806985
209.337006,0.447458,8.446963,9.070593
209.437006,-5.953642,8.640781,9.525528
209.537006,0.823131,10.738988,14.352150
209.637006,-0.256929,5.868996,10.371690
209.737006,0.172283,11.793923,5.165805
209.837006,2.353042,3.048755,-2.050051
209.937006,-8.141878,17.124834,11.592927
210.037006,4.807480,8.182856,-0.523131
210.137006,-0.987638,11.038689,-9.064013
210.237006,-4.255635,18.119051,10.729117
210.337006,-1.955534,5.235795,11.121242
210.437006,-2.450849,12.747165,4.327719
210.537006,0.829412,4.703392,3.810271
210.637006,-5.975177,16.695322,-0.505185
210.737006,3.716951,3.436692,11.574981
210.837006,-6.788139,11.051551,-2.834897
210.937006,1.095315,8.166405,-4.043870
211.037006,-2.183451,11.590534,-2.298605
211.137006,2.528316,8.552247,9.078070
211.237006,-6.312565,9.263215,4.025326
211.337006,0.999303,8.184949,-0.462712
211.437006,-2.100001,12.363116,5.310870
211.537006,-0.083151,8.396714,2.421836
211.637006,-1.230210,9.763614,-3.135794
211.737006,0.620339,9.443872,0.398106
211.837006,-3.148955,13.176975,-1.663909
211.937006,-0.296710,11.999108,7.348658
212.037006,1.591526,14.274982,5.985945
212.137006,-4.676772,3.528815,8.195119
212.237006,-6.046663,8.969196,1.792523
212.337006,2.010270,8.816056,-5.101797
212.437006,-1.343271,4.379464,2.443072
212.537006,1.889133,13.114463,9.080164
212.637006,-5.693422,13.805390,10.494621
212.737006,-4.467400,14.966507,9.996914
212.837006,-1.407279,-0.882952,6.416055
212.937006,-4.317549,10.933704,3.130111
213.037006,1.409073,10.595717,6.676872
213.137006,-6.585646,8.334500,5.821737
213.237006,-0.615554,6.470192,6.929615
213.337006,-0.483649,10.904093,-2.674278
213.437006,2.893820,9.087043,3.434299
213.537006,-4.174578,9.259625,3.820141
213.637006,4.465904,9.166306,-2.298007
213.737006,-2.988636,9.290133,2.991028
213.837006,0.731306,9.724730,3.741178
213.937006,-1.087239,9.357133,-0.862313
214.037006,-2.257927,6.785447,3.330510
214.137006,1.910968,10.237392,-0.145065
214.237006,-2.647957,3.375076,0.509372
214.337006,-1.062413,16.300507,6.636494
214.437006,-0.911965,6.590133,4.308277
214.537006,-2.817549,8.437093,12.025130
214.637006,0.164207,2.080858,3.832405
214.737006,-2.545365,17.765213,2.943471
214.837006,7.428518,1.057628,15.076278
214.937006,-5.878567,15.668801,-1.163809
215.037006,2.228914,4.947460,4.567300
215.137006,0.333500,12.976277,6.471389
215.237006,3.478267,2.606681,12.413964
215.337006,-6.337391,10.576875,-10.596316
215.437006,-2.733501,14.302200,6.221937
215.537006,-1.652244,2.128416,6.422635
215.637006,0.829412,7.917850,2.732604
215.737006,6.533901,2.554338,13.617554
215.837006,0.877867,12.551551,-4.893322
215.937006,0.259023,11.240284,1.735993
216.037006,-3.371188,10.157532,5.550451
216.137006,1.036990,10.885549,1.622633
216.237006,4.611269,4.433601,0.035593
216.337006,-2.574976,10.572986,5.913263
216.437006,-1.860420,10.181760,9.790833
216.537006,-1.840978,7.468298,-9.490832
216.637006,1.531407,14.163117,7.987541
216.737006,-6.193223,3.821936,-1.264009
216.837006,-0.634696,10.947164,1.202393
216.937006,-4.275376,5.111368,-5.520242
217.037006,-5.358427,15.208482,28.604101
217.137006,-1.957030,2.932703,14.415261
217.237006,1.105783,13.699209,10.194023
217.337006,13.127324,16.982161,14.229218
217.437006,8.742776,-0.170190,3.030211
217.537006,-6.148059,14.049757,-6.209973
217.637006,-0.798904,3.699304,13.291831
217.737006,-2.767299,-2.749353,3.792923
217.837006,-0.103190,18.521645,-21.902702
217.937006,1.604687,3.130111,34.073196
218.037006,-0.553938,6.319744,1.161117
218.137006,3.751647,12.694821,-24.955645
218.237006,-2.217548,2.143969,15.981064
218.337006,-1.008575,13.172488,16.202700
218.437006,5.190331,8.692527,-5.572884
218.537006,-2.190031,9.204591,3.789334
218.637006,2.775973,6.617650,11.630015
218.737006,2.286342,10.073484,5.359923
218.837006,3.176771,9.816256,3.820441
218.937006,0.613759,10.033105,10.351650
219.037006,8.056334,4.887640,9.803095
219.137006,-3.369992,9.461520,-5.987740
219.237006,-5.252844,14.921343,8.997911
219.337006,-1.713859,8.417352,18.034105
219.437006,-6.241678,10.692029,10.930115
219.537006,4.630411,10.220942,-2.020739
219.637006,-0.881755,11.398211,1.358824
219.737006,-3.329015,8.910274,4.418347
219.837006,1.340280,10.036097,8.625527
219.937006,2.906681,10.802398,11.348261
220.037006,-4.863412,8.387442,7.074380
220.137006,0.426820,12.264711,0.554836
220.237006,0.542273,8.952147,10.545468
220.337006,5.756832,6.871289,4.418347
220.437006,0.013161,9.334999,-1.397708
220.537006,-0.447458,11.745469,-1.817648
220.637006,4.803292,5.233402,4.103392
220.737006,-0.422632,9.913465,-0.968495
220.837006,-4.158726,9.538090,11.703894
220.937006,0.077767,6.334699,1.476970
221.037006,0.993321,11.964711,-7.250552
221.137006,4.364509,11.602199,12.317653
221.237006,3.049054,5.453841,6.157331
221.337006,-1.122533,12.673884,3.865904
221.437006,1.807778,7.458727,5.220840
221.537006,-7.616354,10.859825,7.507182
221.637006,0.812662,9.292527,7.231409
221.737006,1.293321,8.337790,8.430512
221.837006,-1.242174,9.603294,8.000702
221.937006,2.871686,9.690333,11.558530
222.037006,-0.498305,8.018947,3.407080
222.137006,0.494118,6.238388,4.640580
222.237006,-1.533500,11.781660,7.975876
222.337006,1.213460,9.650553,8.945867
222.437006,5.910571,6.926623,9.118449
222.537006,-2.274976,10.634900,9.533304
222.637006,4.380959,3.730710,6.617052
222.737006,-1.560719,8.675776,-3.968496
222.837006,3.394219,7.571489,-2.743670
222.937006,-2.052743,10.269695,-5.885147
223.037006,-1.636990,13.316357,1.654338
223.137006,3.988237,7.205387,-0.618246
223.237006,-3.168695,7.977970,-4.113561
223.337006,7.338189,10.677373,9.442377
223.437006,-1.666601,13.846068,11.696715
223.537006,-0.514756,7.805089,2.807678
223.637006,-5.152645,14.359927,-5.746364
223.737006,-7.374380,4.413262,5.506184
223.837006,2.425724,12.567404,-1.742573
223.937006,-3.314957,10.800304,9.864711
224.037006,-2.766402,11.607583,3.372085
224.137006,3.828815,6.215955,-0.104387
224.237006,-4.534698,9.523733,-5.006682
224.337006,0.532104,13.809876,12.808182
224.437006,-0.366700,8.274979,6.448358
224.537006,1.551746,10.574183,3.571587
224.637006,3.491427,4.772186,1.470389
224.737006,-2.229512,9.677173,-4.744369
224.837006,-2.898905,10.105787,10.256236
224.937006,-0.218345,11.241481,-5.706882
225.037006,2.505584,6.506683,7.039983
225.137006,-3.315854,7.410871,17.611773
225.237006,-1.250848,10.899307,5.839385
225.337006,1.192822,9.180662,7.485946
225.437006,-3.887739,8.705089,8.541479
225.537006,5.987141,13.514064,0.323629
225.637006,-0.806680,14.549259,2.155634
225.737006,-1.977668,8.827123,3.966403
225.837006,1.158425,9.757631,5.306683
225.937006,1.004387,8.683554,4.012465
226.037006,-2.151447,11.287542,-3.113960
226.137006,2.736193,6.801299,16.662720
226.237006,1.430609,10.558928,-3.948157
226.337006,-0.949352,2.800500,9.934701
226.437006,-2.620739,12.464811,10.719546
226.537006,-4.773083,9.193823,12.944871
226.637006,-1.872085,10.345668,8.568100
226.737006,3.314358,4.070789,-8.000402
226.837006,-3.634398,12.447165,5.661119
226.937006,-0.803091,6.468398,12.784553
227.037006,-0.916451,11.623734,-1.173679
227.137006,2.548356,11.057532,0.833300
227.237006,-5.923432,11.414661,1.123131
227.337006,3.318247,9.992128,-2.079363
227.437006,-0.486042,14.691033,10.791032
227.537006,1.837389,11.376376,11.653345
227.637006,3.633202,9.794421,10.236197
227.737006,3.755236,7.601399,-5.010870
227.837006,-3.230610,9.234501,8.480164
227.937006,1.417448,5.625825,-8.412866
228.037006,2.338685,6.873383,-13.905590
228.137006,-11.290833,15.660426,3.012564
228.237006,2.995814,6.292525,11.250753
228.337006,-2.796312,15.126228,-10.698310
228.437006,-2.379363,11.118849,18.686449
228.537006,5.716453,10.636994,7.321439
228.637006,0.246461,10.188041,-0.259322
228.737006,0.928116,8.824730,12.784553
228.837006,-1.208375,12.956836,-2.177469
228.937006,1.401596,8.522337,16.296618
229.037006,-5.388637,7.415956,3.506981
229.137006,-0.138186,13.480864,-3.120241
229.237006,-1.614258,5.144269,6.549156
229.337006,-3.392723,13.171292,1.746760
229.437006,-0.849452,4.644170,6.217451
229.537006,3.882056,5.212465,-7.347760
229.637006,0.064905,12.074482,4.205386
229.737006,-1.998306,10.403993,7.374680
229.837006,3.530012,6.834500,6.269794
229.937006,3.244069,6.161518,-5.482854
230.037006,-1.607080,7.678269,7.607980
230.137006,6.020043,7.313064,4.718946
230.237006,-1.338485,20.443378,30.372696
230.337006,11.073684,-4.664209,12.408281
230.437006,-6.827919,12.942778,-1.471885
230.537006,-3.865904,6.426224,1.795514
230.637006,-5.496613,20.298315,15.448661
230.737006,6.353542,-2.936592,-3.118745
230.837006,1.024427,9.573085,-9.804591
230.937006,-0.039781,18.938593,5.202595
231.037006,-0.405583,2.150848,3.049054
231.137006,3.028117,14.171493,-1.916053
231.237006,-4.220341,10.821839,7.583752
231.337006,-3.918546,2.891427,-3.000899
231.437006,-0.548256,10.477871,10.756635
231.537006,0.028116,7.168598,3.640081
231.637006,0.171386,12.137593,-11.949158
231.737006,0.594018,8.739784,1.100998
231.837006,0.394816,12.035599,9.548260
231.937006,3.023930,7.955238,1.506880
232.037006,-2.630610,7.569993,4.051348
232.137006,-1.258026,11.944372,-1.505085
232.237006,-5.549853,7.556534,8.709874
232.337006,-0.365803,6.739684,1.074377
232.437006,0.748355,9.545269,-4.569394
232.537006,3.258127,9.913763,13.312768
232.637006,1.393520,9.049356,-1.209273
232.737006,4.670491,8.929715,-4.366303
232.837006,-0.541675,10.476675,1.427618
232.937006,-0.410070,9.733704,-1.597807
233.037006,-3.757629,16.355841,13.516756
233.137006,-0.726521,3.621238,1.301097
233.237006,0.882054,14.867804,12.544672
233.337006,-4.418646,10.933704,8.481958
233.437006,0.461815,5.128417,4.806283
233.537006,-2.251347,13.302000,-12.174981
233.637006,-2.059024,6.466603,0.827618
233.737006,4.421039,9.360124,2.957529
233.837006,-4.264907,7.377670,-2.173879
233.937006,-1.815255,6.940382,-0.131605
234.037006,-6.887142,9.496814,-1.474278
234.137006,0.285045,4.570889,-0.059821
234.237006,-2.839682,17.789141,22.899612
234.337006,9.367003,-2.710470,-5.489733
234.437006,-2.120340,5.484350,-16.517057
234.537006,-6.895217,16.733606,5.507978
234.637006,0.326022,6.012266,-1.309173
234.737006,-0.358923,16.367506,4.043272
234.837006,-3.471986,12.776177,-4.288836
234.937006,6.200402,8.996714,6.886244
235.037006,-1.392025,7.890632,4.380660
235.137006,0.617348,8.947960,0.850349
235.237006,-2.922235,9.065806,4.269094
235.337006,6.545267,0.728315,-10.512268
235.437006,-2.289333,10.486246,-1.762314
235.537006,-1.609771,8.447561,2.805884
235.637006,-2.155036,12.043375,2.116452
235.737006,-0.831506,13.821841,9.051450
235.837006,-2.444567,6.806384,9.826426
235.937006,1.790729,8.162217,-8.612367
236.037006,-4.395316,13.365111,12.762718
236.137006,0.084646,10.336097,4.622634
236.237006,1.305285,12.558431,10.876276
236.337006,-0.579362,7.618149,3.062813
236.437006,1.886741,7.472486,3.349653
236.537006,-4.372285,9.787243,4.878965
236.637006,-1.523929,7.332805,1.421935
236.737006,2.218446,7.673483,-6.734599
236.837006,-5.748158,11.068001,-3.486941
236.937006,0.264706,8.149954,8.241180
237.037006,3.261716,3.305685,-2.272882
237.137006,2.487638,7.385447,-0.134596
237.237006,-5.708976,6.232705,-5.466403
237.337006,-2.043171,21.511774,4.659424
237.437006,-1.379163,5.036891,8.065906
237.537006,-2.293820,6.737590,-9.411570
237.637006,2.428416,5.169095,-2.201696
237.737006,-1.350449,12.349058,6.902695
237.837006,2.380559,6.258727,-6.049056
237.937006,0.235693,14.562120,2.749353
238.037006,-5.724828,5.759225,5.560621
238.137006,0.027817,9.305986,5.673083
238.237006,1.051945,7.839485,1.494617
238.337006,1.387538,10.889736,6.260222
238.437006,-1.696810,10.453644,-2.504986
238.537006,-1.301995,15.297316,9.419645
238.637006,4.664509,6.245566,6.589235
238.737006,-2.946163,10.197911,5.942276
238.837006,-0.662214,3.717848,-5.557929
238.937006,-1.095315,11.267802,-4.634299
239.037006,2.475973,11.879467,19.304695
239.137006,2.713162,-7.479066,-7.001399
239.237006,-2.326721,24.382265,-0.551845
239.337006,1.603490,-0.188435,13.458132
239.437006,-2.222932,13.322339,-8.216354
239.537006,-1.976472,8.378469,2.681158
239.637006,0.692124,14.746966,-1.080359
239.737006,4.905885,6.170192,10.395618
239.837006,-3.653242,16.957037,5.192126
239.937006,0.004487,1.913361,7.206285
240.037006,-1.431805,14.195121,1.499103
240.137006,-0.719940,8.395817,-6.585646
240.237006,-0.037388,11.274681,11.636296
240.337006,-4.652544,9.282955,3.937390
240.437006,1.950749,6.002994,3.201298
240.537006,-0.075673,9.593723,4.913960
240.637006,6.344569,8.381759,15.247066
240.737006,-6.712765,9.819845,-3.302095
240.837006,3.411866,4.597210,-15.335899
240.937006,-10.563714,22.228127,-11.308181
241.037006,2.113162,-5.905187,-7.668398
241.137006,-4.135994,27.471399,-5.936593
241.237006,-1.472184,1.186242,19.602003
241.337006,-1.699502,13.495220,-9.476475
241.437006,-2.140978,8.272287,19.099810
241.537006,-4.641478,9.034999,10.958529
241.637006,5.289933,4.362415,8.099705
241.737006,0.157926,8.604291,-12.729517
241.837006,0.955334,7.007381,4.758128
241.937006,-2.633600,12.361321,-5.678766
242.037006,4.647161,4.624429,3.539284
242.137006,-6.142076,19.491934,-9.916455
242.237006,1.618146,5.921339,6.605387
242.337006,2.182553,16.831114,-7.933403
242.437006,4.753941,27.303303,-22.281666
242.537006,-3.677469,1.991127,8.010572
242.637006,5.484649,10.872687,4.666004
242.737006,-2.646462,1.911865,12.428321
242.837006,5.616254,11.878570,1.629512
242.937006,-5.323133,8.320742,13.658232
243.037006,-1.685444,9.270692,6.693622
243.137006,1.644168,5.579763,7.042675
243.237006,-0.634696,11.389537,-5.254339
243.337006,-2.300400,13.175778,3.293720
243.437006,0.269791,7.676175,5.204090
243.537006,-0.262911,10.890932,16.847565
243.637006,-1.002294,9.526724,10.527224
243.737006,1.162014,7.224530,2.453840
243.837006,-4.449154,8.217551,-7.638787
243.937006,-1.640579,18.954145,-5.095516
244.037006,1.055833,8.171788,11.008779
244.137006,4.077071,5.027619,-1.546960
244.237006,-3.002394,12.035898,-0.285942
244.337006,-1.945365,8.788539,3.204588
244.437006,-0.340080,6.757630,3.420839
244.537006,-2.988935,11.529517,-1.491327
244.637006,-3.626323,9.350254,1.737787
244.737006,0.639781,7.179664,5.898906
244.837006,-1.830509,11.512767,2.313261
244.937006,-0.544367,7.386942,5.791229
245.037006,-0.104985,7.833802,11.776875
245.137006,-0.325424,7.096813,5.918647
245.237006,-3.312863,12.512369,3.092125
245.337006,1.806880,6.239883,7.496713
245.437006,-0.744467,11.191232,8.274680
245.537006,-3.280859,8.007282,0.767498
245.637006,-2.939284,10.668998,-0.101097
245.737006,-2.169094,10.211670,6.690332
245.837006,0.882353,8.432307,9.563514
245.937006,-0.916750,4.944768,0.832702
246.037006,-0.759123,15.425631,0.282951
246.137006,2.741876,6.078069,6.345467
246.237006,-2.019841,8.143673,-4.685745
246.337006,-1.681855,13.302598,4.626523
246.437006,-3.424727,-4.799105,15.815660
246.537006,-3.477968,8.157731,1.956731
246.637006,6.904490,-1.733301,20.554047
246.737006,-7.716554,15.522839,-5.057829
246.837006,2.045863,4.237390,2.312364
246.937006,0.274875,10.054341,7.241280
247.037006,-1.986342,9.927522,1.549951
247.137006,-7.927721,4.655236,0.440578
247.237006,2.632404,16.312172,7.692028
247.337006,-2.079961,8.169993,2.433800
247.437006,-1.111167,6.263512,0.531805
247.537006,-1.366900,14.454443,-10.118350
247.637006,3.472285,7.165905,3.187240
247.737006,-4.349853,9.624830,-6.256932
247.837006,-2.262115,4.158726,-2.042872
247.937006,0.333500,15.273088,2.656631
248.037006,-0.944268,10.465010,10.918151
248.137006,-1.731506,5.571089,-5.030910
248.237006,-0.449851,15.960127,14.341681
248.337006,-0.583550,7.741679,7.845767
248.437006,-1.142274,10.018150,6.217750
248.537006,-4.098905,14.865411,5.169693
248.637006,0.839582,8.904291,0.332901
248.737006,-1.317249,10.311271,-14.635699
248.837006,2.558526,10.487741,2.444567
248.937006,-0.834198,8.039884,5.663213
249.037006,2.307578,7.185048,5.613263
249.137006,-2.228615,11.153844,5.901000
249.237006,1.110569,6.536593,-2.806183
249.337006,-1.336092,13.521542,8.307282
249.437006,1.391127,4.246064,-2.239682
249.537006,-7.564909,15.792929,8.613264
249.637006,1.421337,8.158030,7.616653
249.737006,0.673280,11.459826,5.589933
249.837006,0.410369,12.148959,6.079265
249.937006,-5.225924,7.644769,4.935795
250.037006,-2.008476,16.759331,11.876775
250.137006,2.067100,4.755137,-1.313660
250.237006,-1.236491,11.103295,-9.245567
250.337006,-2.868396,12.723536,6.087640
250.437006,5.347660,6.112465,0.417847
250.537006,0.248554,9.682557,7.814361
250.637006,-1.751845,10.549656,5.091328
250.737006,1.504786,6.984350,-3.796811
250.837006,0.137288,11.300703,1.875076
250.937006,-3.488137,17.216061,6.087042
251.037006,-0.213559,7.533204,12.848261
251.137006,0.556630,4.741677,11.423335
251.237006,-7.947162,5.645566,21.318853
251.337006,4.838287,7.649555,5.360521
251.437006,0.110070,8.289037,2.226521
251.537006,-0.530608,13.000205,6.897311
251.637006,1.327119,7.890931,6.810272
251.737006,-1.461716,7.403692,1.601696
251.837006,2.285445,9.044869,-4.674379
251.937006,-1.961815,10.507782,14.055440
252.037006,0.364008,7.563713,2.477170
252.137006,2.124527,10.382158,7.586743
252.237006,-1.106381,9.850353,0.510569
252.337006,-6.457630,8.634800,-1.115354
252.437006,0.596710,10.029516,4.465306
252.537006,-1.697409,6.069096,2.006980
252.637006,-2.248954,9.654142,10.506885
252.737006,-0.166002,9.636196,2.510370
252.837006,-0.073280,8.102098,4.278367
252.937006,-3.481258,12.359228,4.649853
253.037006,-1.269991,7.710572,8.720942
253.137006,1.988137,9.023932,3.399004
253.237006,2.989234,11.407483,6.070292
253.337006,3.326024,8.253444,8.676374
253.437006,-2.239682,11.324332,0.342473
253.537006,0.579362,9.163613,11.655439
253.637006,-2.493620,11.165808,-1.494318
253.737006,0.469292,10.572986,4.127320
253.837006,-2.137090,8.673384,1.805983
253.937006,0.084048,10.295119,7.634600
254.037006,-2.631806,11.706286,0.904786
254.137006,3.097509,6.842875,-2.361716
254.237006,-0.275474,8.570493,0.802194
254.337006,-2.866901,12.611670,15.296119
254.437006,0.305683,6.977471,7.086943
254.537006,-0.336491,8.027920,-0.122931
254.637006,4.206582,7.742277,-15.265311
254.737006,-8.042277,9.279067,1.293919
254.837006,2.242972,6.482157,5.079065
254.937006,0.148654,10.010972,-2.018645
255.037006,-4.156034,10.896017,7.771290
255.137006,0.090628,6.721140,-0.168395
255.237006,-4.754838,11.823236,6.846464
255.337006,-2.020739,10.287642,-4.553841
255.437006,1.622334,6.235397,-5.167899
255.537006,0.275474,10.995319,12.370594
255.637006,-1.500300,11.723335,-4.769195
255.737006,2.542075,9.549456,9.401999
255.837006,-0.890130,8.216056,5.656333
255.937006,1.615155,10.562219,4.857729
256.037006,-0.544367,6.405287,0.053539
256.137006,0.971187,12.205789,3.313760
256.237006,-1.461716,9.594621,5.821737
256.337006,-0.818345,6.027819,-4.660620
256.437006,-0.308076,8.017751,-1.791925
256.537006,-1.931905,14.166706,7.843373
256.637006,-0.493819,3.499503,8.932407
256.737006,-1.213460,12.290733,-2.568396
256.837006,-1.061217,8.925528,-1.429712
256.937006,-1.597807,12.879667,14.241781
257.037006,1.593919,6.823134,-0.986740
257.137006,-0.224626,8.441280,8.655139
257.237006,-1.916651,7.915158,-1.756332
257.337006,-0.218943,10.615159,-4.843970
257.437006,-1.447060,9.612865,7.642376
257.537006,-1.760818,7.998010,7.434799
257.637006,2.561517,5.423931,-2.038984
257.737006,-1.389034,7.204789,-1.412663
257.837006,0.568594,10.715359,4.452445
257.937006,1.523032,7.386045,1.417747
258.037006,-2.588436,9.470493,9.662517
258.137006,1.652543,7.604390,5.248656
258.237006,-2.049154,11.507383,3.927519
258.337006,1.794318,8.350054,0.133400
258.437006,2.106282,6.795616,7.536195
258.537006,-0.883251,11.066805,7.674081
258.637006,1.194318,9.023932,7.998907
258.737006,0.572184,9.802198,11.016256
258.837006,-0.395414,10.402797,11.560025
258.937006,-3.345465,9.596416,10.310373
259.037006,0.873081,5.807680,-3.289832
259.137006,-5.389235,28.025936,-3.079862
259.237006,2.800500,-6.525228,3.593122
259.337006,-2.076970,32.995228,-5.495117
259.437006,-1.974976,-2.702992,1.830808
259.537006,-2.077568,12.736995,-5.283053
259.637006,0.075075,18.098713,-21.725334
259.737006,-2.217548,-9.290133,34.091740
259.837006,3.744468,12.393924,0.975973
259.937006,1.984248,7.389036,14.389538
260.037006,0.550349,11.318051,-0.990629
260.137006,-3.259922,8.324032,1.355833
260.237006,1.550848,5.493322,17.100904
260.337006,1.485046,6.195317,8.164909
260.437006,-0.948156,16.668104,13.338192
260.537006,0.662812,8.738289,11.734701
260.637006,-1.306481,7.004689,5.469095
260.737006,0.053539,17.243279,-8.623135
260.837006,0.316451,9.933205,-0.564108
260.937006,0.039182,3.959523,7.730911
261.037006,-3.952644,6.243772,-0.582951
261.137006,2.225325,9.194720,7.099205
261.237006,-3.486043,10.991730,10.311271
261.337006,4.601996,7.125826,10.444073
261.437006,0.756132,6.293423,5.050052
261.537006,-0.221934,10.811969,0.535095
261.637006,2.092823,-4.786243,26.017460
261.737006,-1.064208,13.908880,-7.211070
261.837006,0.351147,14.090734,-2.358127
261.937006,-6.116055,2.647359,3.474079
262.037006,-4.532604,11.156535,-8.460722
262.137006,-0.029910,7.021738,8.527422
262.237006,-3.023930,9.589536,4.227818
262.337006,1.728814,8.743972,3.907779
262.437006,-0.841376,11.262119,3.059822
262.537006,4.035794,8.598310,6.218946
262.637006,-1.908575,8.207681,4.126722
262.737006,-0.513260,9.119047,3.961916
262.837006,-2.154737,8.734401,4.016951
262.937006,2.261517,7.987840,5.563612
263.037006,-0.956830,7.967202,8.868698
263.137006,1.815554,-1.811666,-19.689041
263.237006,-1.312164,63.553669,-17.094324
263.337006,5.175974,-7.619346,21.953550
263.437006,12.724133,51.368217,-59.804413
263.537006,0.888335,-11.935101,25.861628
263.637006,-2.574976,9.939785,-4.349554
263.737006,0.337986,6.495317,7.338189
263.837006,-1.568794,9.487542,2.594717
263.937006,-5.412565,8.378169,1.529612
264.037006,0.317348,6.463313,9.943375
264.137006,-7.018448,12.154043,-1.892125
264.237006,-0.496212,7.809276,6.813861
264.337006,0.653241,7.590333,0.643669
264.437006,6.274879,3.730111,12.806387
264.537006,1.983650,6.247062,6.126523
264.637006,-1.479064,9.879965,6.758228
264.737006,-0.360718,12.475579,4.079463
264.837006,-0.049950,8.924331,1.395016
264.937006,-0.842872,8.823533,3.572484
265.037006,-3.002394,12.096018,-0.912264
265.137006,4.686044,6.441778,3.961318
265.237006,-1.583750,13.734203,-2.219642
265.337006,-0.792623,9.984351,1.841875
265.437006,2.093122,6.004489,5.601299
265.537006,2.205285,6.398707,1.394417
265.637006,-1.347159,10.038190,2.220839
265.737006,-0.739382,10.596017,-0.043669
265.837006,0.976571,11.216356,0.245563
265.937006,3.213262,6.406184,1.589732
266.037006,2.634498,8.661719,-0.060718
266.137006,-1.581955,7.349555,-0.069093
266.237006,-0.449252,11.041381,1.296611
266.337006,-5.729614,11.633006,-0.534497
266.437006,-2.120340,-0.057428,-1.854138
266.537006,-1.353440,15.013765,0.302393
266.637006,-3.917948,16.194624,19.091734
266.737006,-0.254836,2.422733,6.741778
266.837006,3.887140,13.837693,-5.304290
266.937006,1.693520,6.269794,2.512165
267.037006,-2.969194,11.178370,-7.038787
267.137006,-0.815354,7.928917,3.661019
267.237006,0.643669,8.513962,1.471287
267.337006,-0.742373,13.619946,7.809575
267.437006,0.589532,9.165408,8.052446
267.537006,3.029912,12.358331,-4.465007
267.637006,0.258126,5.466702,5.396413
267.737006,-0.487837,6.056832,-14.593526
267.837006,-2.465804,7.651051,13.217953
267.937006,1.620838,10.466207,8.714062
268.037006,-2.734398,-2.641078,-2.088037
268.137006,-7.366304,-1.152144,20.854048
268.237006,3.192923,13.291532,-3.184249
268.337006,-3.074777,3.540181,-4.423132
268.437006,-0.033500,8.472088,2.878267
268.537006,-0.503390,-0.942772,9.617352
268.637006,1.770988,19.402203,-9.774382
268.737006,-1.672882,2.810669,8.504391
268.837006,1.478764,13.064812,7.630412
268.937006,-1.892424,9.484252,4.683053
269.037006,-3.150151,17.741882,20.435602
269.137006,-1.567598,7.610970,6.941578
269.237006,-0.049651,11.668301,4.903492
269.337006,-1.612164,14.006388,-0.405284
269.437006,1.061815,13.798511,-3.353840
269.537006,0.419641,9.123533,0.648156
269.637006,3.545864,8.275578,6.841977
269.737006,-2.932105,6.149853,3.898805
269.837006,-0.050847,15.190536,13.829020
269.937006,3.919444,4.670790,15.238691
270.037006,-3.109174,10.424631,1.970490
270.137006,-6.763313,12.066108,-3.979264
270.237006,1.974079,0.010169,12.985549
270.337006,1.003490,10.925629,-9.910473
270.437006,-3.492026,11.049158,10.588839
270.537006,-2.864807,9.096016,10.247263
270.637006,-3.000600,8.777472,5.041976
270.737006,2.077568,6.696912,4.810770
270.837006,0.910768,11.931810,6.059824
270.937006,0.001196,9.358330,8.903095
271.037006,-2.308177,11.556735,2.252244
271.137006,2.875874,7.099804,6.151349
271.237006,-4.958527,7.263413,1.442872
271.337006,-1.890330,12.588640,1.979463
271.437006,1.731506,7.675278,4.891229
271.537006,-0.916152,12.983156,4.508676
271.637006,2.950051,9.382257,13.929518
271.737006,4.910371,4.010371,-6.518647
271.837006,-1.897807,12.594024,-6.047859
271.937006,-1.450649,9.848858,0.168993
272.037006,-2.244169,3.048157,4.245765
272.137006,-1.703989,12.572787,-5.051847
272.237006,2.009672,13.839189,3.026622
272.337006,2.013261,6.530910,13.016058
272.437006,1.488037,8.678169,-6.014958
272.537006,-1.487738,8.925528,-6.529116
272.637006,-0.539581,10.565509,8.497512
272.737006,-3.673282,4.790431,10.144372
272.837006,1.752443,9.421440,-4.294219
272.937006,-0.393021,11.053944,-9.948460
273.037006,-6.395118,10.057931,5.363512
273.137006,-0.887139,5.808577,14.357534
273.237006,-3.111268,5.855835,9.567103
273.337006,-1.109372,10.815259,5.484948
273.437006,3.084647,9.574880,3.638586
273.537006,-5.052146,11.187642,6.291030
273.637006,-3.562315,13.236497,3.920341
273.737006,6.489036,7.761718,10.887044
273.837006,6.173781,9.430713,-4.286443
273.937006,-0.277567,8.709874,0.796810
274.037006,-1.619642,8.919545,1.957030
274.137006,-4.054638,9.162118,0.147159
274.237006,-1.100399,13.399209,3.120839
274.337006,-1.991726,14.648860,9.984651
274.437006,-1.805086,2.872584,7.465607
274.537006,-1.271187,10.310373,-2.140978
274.637006,2.500500,13.633107,1.357628
274.737006,-0.427418,4.587938,1.283749
274.837006,-5.340182,13.869100,-4.220640
274.937006,0.233300,5.887241,-2.973680
275.037006,-1.592423,10.713863,2.272882
275.137006,2.610869,10.967203,-5.909973
275.237006,-0.283849,12.321242,2.044069
275.337006,-0.576371,6.527620,12.398411
275.437006,2.560619,6.224629,-6.083752
275.537006,-1.401596,6.404091,-9.557532
275.637006,-1.964507,12.777673,7.207780
275.737006,-0.244965,4.999504,6.801000
275.837006,-1.340878,6.058627,12.703794
275.937006,-3.945765,10.279267,3.325425
276.037006,-6.256035,10.697712,-4.447360
276.137006,5.533402,6.539584,6.137590
276.237006,-0.476172,10.215259,-2.409872
276.337006,-0.682852,10.079167,4.037589
276.437006,-0.995713,9.462418,10.661520
276.537006,-1.971088,7.686943,5.150551
276.637006,-1.205384,6.788737,-3.843771
276.737006,-2.126920,13.156337,3.588337
276.837006,0.056530,9.498011,14.099110
276.937006,-4.045665,7.524829,12.844672
277.037006,2.030908,8.616554,6.991828
277.137006,-1.390230,10.514661,7.692327
277.237006,0.437288,8.669496,1.263111
277.337006,-0.536291,8.050353,5.378766
277.437006,1.207777,13.257733,-0.291924
277.537006,1.398605,5.797211,7.629515
277.637006,-3.905984,9.471989,1.296611
277.737006,-2.129612,12.697214,5.438587
277.837006,0.658624,4.911568,3.932903
277.937006,-1.266701,11.549257,1.876870
278.037006,1.164108,10.706685,4.609474
278.137006,-2.081756,10.011570,1.594816
278.237006,-0.467199,8.448758,1.263410
278.337006,-1.539183,9.117850,5.246563
278.437006,-0.166301,5.550451,-0.656830
278.537006,-3.026322,14.457733,-0.827318
278.637006,3.602395,7.540681,-1.191327
278.737006,-2.382055,7.909176,6.154938
278.837006,-1.762912,14.225032,4.439882
278.937006,7.106384,-1.465006,-0.445364
279.037006,-1.876870,12.014064,8.916255
279.137006,8.264810,6.573383,4.475176
279.237006,-7.087541,1.003490,1.834697
279.337006,0.596112,14.739489,-0.380160
279.437006,0.080459,8.882756,11.697015
279.537006,0.058026,12.809677,-0.303888
279.637006,-3.495017,7.358827,2.014757
279.737006,-3.224329,8.706883,11.314761
279.837006,1.546661,9.732208,2.617748
279.937006,0.421735,8.830413,7.829017
280.037006,-1.970190,12.688241,6.574579
280.137006,-0.454636,9.815658,8.817552
280.237006,-1.526920,6.621838,7.221539
280.337006,-1.076471,12.724433,0.542872
280.437006,0.026022,6.211768,5.148756
280.537006,-1.247857,6.818348,1.850250
280.637006,0.118744,12.690634,-2.219343
280.737006,-0.430708,8.132905,6.352944
280.837006,-1.172782,7.806285,4.836792
280.937006,0.470788,11.196615,5.642874
281.037006,-0.475274,8.490932,4.305884
281.137006,-0.935893,11.238490,6.316453
281.237006,0.151944,9.722636,2.864508
281.337006,0.318245,9.783653,7.811668
281.437006,-1.701895,9.153743,3.005086
281.537006,-1.719542,8.777172,-2.003391
281.637006,-3.346063,9.765409,2.246262
281.737006,-1.709672,10.099805,4.203292
281.837006,-1.420738,7.896913,3.581158
281.937006,-0.478265,7.054340,6.715457
282.037006,-0.127418,9.381660,1.983052
282.137006,-0.111266,11.612369,-5.917749
282.237006,-0.235394,9.914362,5.193323
282.337006,-0.916750,7.521240,3.821637
282.437006,0.782154,11.665608,0.733699
282.537006,-0.874876,9.268898,3.366701
282.637006,1.983650,9.844970,5.869893
282.737006,-0.570389,8.353344,6.281159
282.837006,-0.522234,8.729615,2.680260
282.937006,-0.079860,5.586643,-0.939482
283.037006,-7.340282,25.747070,-7.344769
283.137006,2.203490,-5.564808,28.049564
283.237006,1.173679,10.668100,3.912863
283.337006,-3.553042,10.448858,1.135394
283.437006,2.494219,7.077371,5.174180
283.537006,-0.804287,7.020841,5.137689
283.637006,4.561318,8.840283,4.111168
283.737006,-11.405988,35.059639,-60.842300
283.837006,1.450948,-1.048655,17.522341
283.937006,-0.177069,14.324035,-1.583450
284.037006,0.372383,8.793623,6.220142
284.137006,-0.053539,7.849356,5.759524
284.237006,-0.008973,10.572388,3.600899
284.337006,-4.071388,9.619745,2.819942
284.437006,-3.597908,7.687541,4.398606
284.537006,0.728914,10.081859,4.359125
284.637006,0.883550,9.088838,1.426421
284.737006,-0.041874,10.514661,1.742872
284.837006,1.911865,8.891729,1.156631
284.937006,-0.159123,9.655638,2.837289
285.037006,-1.756631,8.963813,4.326821
285.137006,0.687338,8.280363,2.539682
285.237006,-0.614058,10.469795,2.710470
285.337006,-0.173181,9.281759,5.065007
285.437006,-1.832902,7.509275,2.074278
285.537006,-1.473979,9.865009,3.194119
285.637006,-0.413360,9.001500,1.800599
285.737006,-1.081257,9.759128,2.987140
285.837006,0.052941,7.663613,2.991328
285.937006,2.001297,9.517751,5.027619
286.037006,-1.149153,10.713863,1.780260
286.137006,-0.685245,9.352945,4.096213
286.237006,0.851845,8.501998,4.844868
286.337006,-0.241974,9.745368,4.229613
286.437006,0.471685,9.041281,1.904986
286.537006,-0.274576,8.694920,3.618247
286.637006,-0.298804,10.635498,-0.401695
286.737006,0.618545,9.140284,4.077370
286.837006,1.625325,9.014959,0.483051
286.937006,-0.376271,10.134800,2.066202
287.037006,-0.602991,8.311769,1.759024
287.137006,-0.067298,9.959227,4.568796
287.237006,-0.903291,7.166504,5.645566
287.337006,-2.743969,10.367502,2.077568
287.437006,0.297308,8.425727,2.682653
287.537006,-0.731905,9.494720,3.020639
287.637006,0.757328,9.886844,2.465505
287.737006,0.529113,8.790932,0.631107
287.837006,-3.113361,9.448359,4.919344
287.937006,-1.985744,8.865707,3.483351
288.037006,-0.789931,7.775477,2.356033
288.137006,-1.718944,8.263015,3.182753
288.237006,-0.628714,10.138689,3.251846
288.337006,1.214657,10.322637,1.848456
288.437006,4.280461,7.964510,6.231508
288.537006,0.046062,9.219845,3.137888
288.637006,-0.308973,9.625728,3.169892
288.737006,-0.860519,8.880064,2.405385
288.837006,-0.496810,9.364013,3.947559
288.937006,-1.990230,8.906684,5.938986
289.037006,-1.158425,11.742179,5.609674
289.137006,1.752443,9.072387,2.000699
289.237006,-0.840180,9.971490,1.918146
289.337006,-0.586541,8.146963,5.510072
289.437006,0.309272,10.832308,4.065406
289.537006,3.746861,7.724031,5.920442
289.637006,-1.583450,7.716853,4.413561
289.737006,-0.504287,10.632507,1.086940
289.837006,-0.407976,8.745169,4.108776
289.937006,-0.314955,9.707682,3.686742
290.037006,-5.017749,11.130813,-0.148654
290.137006,1.294218,9.693324,5.372485
290.237006,-2.291427,8.164012,4.146163
290.337006,-0.488136,8.848957,4.418048
290.437006,-1.559522,9.735199,2.045265
290.537006,-1.007378,9.661021,1.652543
290.637006,-1.632204,7.168897,5.068596
290.737006,-0.781556,9.687941,4.056732
290.837006,-0.527916,8.925827,4.029812
290.937006,-1.603490,9.129216,4.714459
291.037006,0.576371,8.713762,6.655038
291.137006,-1.178465,7.549356,4.684548
291.237006,-0.286241,10.468898,2.684149
291.337006,0.612862,8.764910,3.619742
291.437006,0.713958,9.709177,3.338885
291.537006,2.864209,6.932605,6.445367
291.637006,-2.467598,9.916156,1.782055
291.737006,1.371087,10.237990,1.651048
291.837006,-0.078066,8.638389,2.066801
291.937006,-1.250848,9.266206,3.447160
292.037006,2.493919,7.319943,5.242674
292.137006,-3.525824,9.224032,3.353541
292.237006,0.507877,8.638688,0.362812
292.337006,-0.568594,9.052347,2.878566
292.437006,-2.180759,8.640483,3.121138
292.537006,1.654637,6.672685,4.837390
292.637006,-3.128915,7.488937,5.951548
292.737006,-1.799403,8.620442,4.281956
292.837006,-0.074776,8.663215,3.830311
292.937006,-1.209572,9.320343,3.905087
293.037006,0.639482,8.586345,1.467997
293.137006,0.296112,8.120343,5.552246
293.237006,1.179961,9.143274,4.223033
293.337006,-1.311566,9.243474,5.239983
293.437006,-1.868495,9.093325,4.058825
293.537006,-5.195715,9.137591,0.077169
293.637006,0.391227,9.264411,4.272086
293.737006,-0.484846,9.362816,3.100799
293.837006,-1.124328,8.836694,3.367599
293.937006,-2.282155,8.677871,3.728317
294.037006,-4.005884,8.822038,1.818545
294.137006,-1.045963,11.309676,2.199901
294.237006,0.052343,8.768798,3.165106
294.337006,1.150948,9.396016,2.654837
294.437006,1.267000,10.317851,-0.453141
294.537006,3.412763,8.465208,2.796312
294.637006,-3.413661,7.524530,2.120041
294.737006,-2.079064,9.288638,1.789532
294.837006,-1.225424,8.730812,1.447658
294.937006,3.796213,10.685149,2.175973
295.037006,-2.122733,10.312168,2.646462
295.137006,-1.453341,9.480363,2.860320
295.237006,-1.480260,9.457333,3.266502
295.337006,-0.781257,9.038888,2.851945
295.437006,-4.183850,10.856834,3.367001
295.537006,0.200399,7.611270,2.823531
295.637006,0.232403,9.569197,3.409174
295.737006,0.500100,9.359226,2.974278
295.837006,-1.010968,8.711669,4.092624
295.937006,1.263111,7.564610,4.319344
296.037006,-1.886741,8.944072,2.798406
296.137006,0.430708,10.161719,3.343072
296.237006,-0.184546,8.904291,3.405286
296.337006,0.666401,9.890733,2.820540
296.437006,2.088336,11.173883,2.384448
296.537006,-1.105783,8.263314,6.290431
296.637006,-2.963212,8.577372,5.515456
296.737006,0.045763,10.003794,4.504189
296.837006,1.219442,7.501798,7.257431
296.937006,-0.689432,8.202297,3.945465
297.037006,-0.515653,10.264312,4.838586
297.137006,0.334098,7.916654,0.052044
297.237006,-0.447757,8.931808,2.702992
297.337006,-4.124329,9.357731,1.860719
297.437006,0.855135,8.848060,3.104089
297.537006,0.614058,9.944870,1.506880
297.637006,-0.266202,8.591430,3.493222
297.737006,-0.776770,8.677871,2.603989
297.837006,0.326620,9.621839,5.967401
297.937006,-3.362514,9.675977,3.837788
298.037006,-0.985843,8.811271,3.787838
298.137006,-0.641875,7.748558,-0.038285
298.237006,2.730211,10.224232,4.174877
298.337006,3.387040,10.221839,4.137789
298.437006,-1.345065,6.758228,8.574979
298.537006,1.292423,10.794621,1.029512
298.637006,4.043870,6.982555,8.426025
298.737006,1.340878,9.009576,6.314360
298.837006,-2.606681,11.888740,0.824627
298.937006,0.673580,11.245369,3.691228
299.037006,-0.322433,8.095817,6.127121
299.137006,-0.694816,8.882157,3.203990
299.237006,-0.646361,8.034500,4.902595
299.337006,-2.286342,7.356733,8.101500
299.437006,-1.226621,8.280662,2.147857
299.537006,-0.544367,9.372986,1.506282
299.637006,-0.461217,10.862817,1.768296
299.737006,-5.006682,9.810573,-0.998106
299.837006,-0.140279,11.372189,1.318445
299.937006,-0.258724,9.170792,2.666801
300.037006,-0.300897,9.231510,4.846961
300.137006,-0.548555,8.415258,2.707180
300.237006,3.786343,7.252047,6.102296
300.337006,-3.940979,10.507782,-2.051247
300.437006,2.051845,7.878668,-1.521536
300.537006,-1.237388,10.511071,3.136991
300.637006,1.006481,10.450354,5.049454
300.737006,-1.126421,9.664013,4.609474
300.837006,2.341078,8.171190,2.833999
300.937006,-3.257828,9.463913,1.227219
301.037006,-0.280259,9.590733,4.227818
301.137006,1.843371,7.425826,6.566803
301.237006,-4.157230,10.621141,2.724528
301.337006,1.824826,10.185946,1.074078
301.437006,-1.057029,9.865009,4.435695
301.537006,-0.849452,9.419945,4.355834
301.637006,-0.257827,8.447262,6.160322
301.737006,-3.572783,9.148359,3.762414
301.837006,-2.484049,8.966206,2.468795
301.937006,-0.955334,9.967302,4.476672
302.037006,-1.875674,9.198608,4.284947
302.137006,-5.165207,9.610772,1.180260
302.237006,1.535893,8.280961,5.596812
302.337006,-3.184249,8.997313,3.518048
302.437006,-0.883849,8.126624,4.887340
302.537006,-1.643570,9.448060,4.584947
302.637006,-6.642177,11.726327,0.334696
302.737006,0.626620,9.315259,5.692824
302.837006,2.787937,10.196714,3.675974
302.937006,0.982553,8.259725,3.470191
303.037006,-1.357329,8.871689,4.225127
303.137006,-6.699006,9.240483,-3.490231
303.237006,-2.552244,12.022738,10.020543
303.337006,0.199502,6.771987,6.661319
303.437006,0.689432,8.568997,-0.393320
303.537006,-0.945763,12.078370,-1.995016
303.637006,-4.359723,9.211470,1.045963
303.737006,-1.882852,10.750354,2.129014
303.837006,-0.162114,9.586545,0.097807
303.937006,-0.680758,9.419047,3.661318
304.037006,-0.717249,9.734002,1.202393
304.137006,-6.332605,11.030613,2.866003
304.237006,1.289731,8.978469,1.872384
304.337006,-1.643570,10.319945,4.267599
304.437006,-1.410270,9.164511,5.631508
304.537006,0.156431,8.522038,1.751546
304.637006,-0.201595,7.969894,-4.473382
304.737006,-2.011766,9.613464,5.074279
304.837006,-0.817747,5.532804,4.071687
304.937006,-0.927219,11.778071,0.233898
305.037006,-1.100100,10.765010,-1.660021
305.137006,0.395115,8.837293,4.344469
305.237006,-1.735694,8.547162,6.874280
305.337006,1.424926,11.499308,3.025425
305.437006,0.809970,9.649955,5.313861
305.537006,0.042173,7.951948,3.132205
305.637006,-1.582553,9.699904,0.917947
305.737006,-3.681657,8.470293,3.933202
305.837006,-1.165604,9.602397,3.305086
305.937006,-3.555435,9.756136,3.776173
306.037006,-0.888335,9.346066,2.685644
306.137006,-0.563510,7.817351,4.314857
306.237006,-0.260219,10.832907,5.134997
306.337006,0.629911,7.744669,4.626523
306.437006,-5.904589,9.232108,0.954736
