Time (s),Gyroscope x (rad/s),Gyroscope y (rad/s),Gyroscope z (rad/s)
0.013252,-0.038331,0.006261,-0.021532
0.033211,0.013744,-0.021074,0.011148
0.133211,0.001069,0.002749,-0.003818
0.233211,-0.004123,-0.021532,0.004276
0.333211,-0.003360,-0.023976,-0.004581
0.433211,0.010843,-0.122628,-0.054671
0.533211,0.078799,-0.223265,0.003512
0.633211,-0.049937,-0.100637,-0.058336
0.733211,-0.024739,0.149658,0.110411
0.833211,0.030084,0.120795,0.041079
0.933211,-0.049326,0.151643,0.090558
1.033211,0.052686,-0.000153,0.056809
1.133211,0.013286,-0.177146,-0.082006
1.233211,0.132248,-0.227846,-0.197304
1.333211,0.006414,0.039552,-0.043217
1.433211,-0.105829,-0.526398,-0.192570
1.533211,0.005650,0.124460,0.102011
1.633211,-0.050089,0.458594,0.434771
1.733211,-0.101095,0.942995,0.770126
1.833211,-0.200511,0.637114,0.443475
1.933211,0.084297,0.039858,0.043217
2.033211,-0.005039,0.510363,0.146909
2.133211,-0.036040,0.268620,0.217462
2.233211,0.006567,0.220669,0.070553
2.333211,-0.070400,0.343754,0.097888
2.433211,0.106746,-0.056045,-0.252738
2.533211,0.005345,-0.854728,-0.684760
2.633211,0.011606,-0.854423,-0.811511
2.733211,-0.654065,0.105524,0.099874
2.833211,-0.233802,-0.443933,-0.073302
2.933211,-0.087504,-0.327567,-0.384223
3.033211,0.231206,-0.759283,0.020922
3.133211,0.192875,-0.317946,-0.124002
3.233211,0.355971,-0.400716,-0.108425
3.333211,0.012981,-0.117130,0.162180
3.433211,-0.871679,0.232886,0.154239
3.533211,0.311685,0.611000,0.617719
3.633211,1.126250,0.027183,0.105982
3.733211,0.393386,-0.211048,-0.070247
3.833211,-0.124002,-0.064903,-0.235329
3.933211,-0.092543,-0.217614,0.094529
4.033211,-0.235329,-0.106287,-0.131790
4.133211,0.104455,0.289694,-0.011606
4.233211,0.136524,0.118352,-0.021991
4.333211,-0.067804,-0.335966,-0.468062
4.433211,-0.065361,-0.541211,-0.505782
4.533211,-0.134081,-0.018631,0.069942
4.633211,-0.245561,0.148283,0.250142
4.733211,0.572517,-0.218683,0.179436
4.833211,0.172259,1.066234,0.166761
4.933211,0.091780,0.423012,0.130416
5.033211,-0.212575,0.080632,-0.045966
5.133211,0.087351,-0.539684,-0.432327
5.233211,0.116366,-0.574655,-0.298552
5.333211,-0.176382,-0.096056,-0.076203
5.433211,0.025656,-0.392927,-0.129805
5.533211,-0.350168,-0.113465,-0.317641
5.633211,0.128736,-0.155766,0.182185
5.733211,0.174855,-0.073149,-0.074829
5.833211,-0.266940,-0.361469,0.168136
5.933211,-0.238689,-0.246782,0.059405
6.033211,-0.446224,0.243881,0.346350
6.133211,0.218225,0.190584,0.370021
6.233211,-0.248157,0.177757,0.055282
6.333211,0.118352,0.060321,0.224486
6.433211,0.613138,0.063223,-0.184323
6.533211,0.383154,0.082770,-0.552206
6.633211,-1.460841,-0.406366,-0.040163
6.733211,0.948340,-0.228151,0.015118
6.833211,-0.332606,-0.431869,-0.077425
6.933211,-0.149658,-0.258999,-0.055129
7.033211,-0.327414,0.649636,0.006414
7.133211,0.158515,-0.403159,0.124002
7.233211,-0.524107,0.332301,0.092849
7.333211,1.047145,0.352612,0.157446
7.433211,-0.764628,0.233344,0.115450
7.533211,-0.518609,0.782648,0.265719
7.633211,0.178673,0.587330,0.161264
7.733211,-0.051006,-0.030237,0.021532
7.833211,0.240063,0.138051,-0.139273
7.933211,0.209979,0.161875,-0.288778
8.033211,0.167372,0.025197,-0.238078
8.133211,-0.109342,0.053602,-0.070095
8.233211,-0.427898,0.082464,0.006719
8.333211,-0.217309,-0.020158,-0.156224
8.433211,0.014813,0.316113,0.058947
8.533211,-0.266788,0.015577,0.098041
8.633211,-0.089947,-0.348488,-0.325123
8.733211,0.470200,0.060627,-0.293970
8.833211,-1.065470,0.257014,-0.087809
8.933211,0.029321,0.219905,0.156835
9.033211,0.274118,0.350015,0.562438
9.133211,0.429578,0.461801,0.600921
9.233211,0.468214,0.108578,-0.251669
9.333211,-0.959794,-0.033444,-0.047341
9.433211,0.430953,0.038483,-0.355971
9.533211,0.055434,-0.399341,-0.370021
9.633211,-0.055587,-0.294123,-0.119268
9.733211,-0.142633,-0.098805,0.212728
9.833211,0.107662,-0.020158,0.282211
9.933211,0.008552,0.318710,0.021991
10.033211,-0.166761,0.214102,0.025197
10.133211,-0.303591,-0.438130,-0.073607
10.233211,0.771500,-0.294886,-0.236092
10.333211,-0.174702,0.209521,0.073607
10.433211,-0.378267,0.166609,0.454318
10.533211,-0.354291,0.026725,-0.037262
10.633211,0.151643,-0.148741,-0.164776
10.733211,-0.203412,0.061848,0.092849
10.833211,-0.187072,0.339020,0.126751
10.933211,1.039357,-0.253349,-0.376282
11.033211,-1.642874,-0.415071,-0.193333
11.133211,0.942232,-0.210590,-0.153781
11.233211,0.055740,0.263733,0.314434
11.333211,-0.074982,0.302217,0.347267
11.433211,-0.000611,0.297635,0.162638
11.533211,0.285571,0.073454,-0.067651
11.633211,-0.080326,-0.498146,-0.203107
11.733211,0.272285,-0.079563,-0.221279
11.833211,-0.107662,0.199594,0.303438
11.933211,-0.003360,0.228457,0.104302
12.033211,-1.057224,0.337493,-0.072080
12.133211,0.804333,0.176229,-0.037262
12.233211,-0.375213,-0.156988,0.144007
12.333211,0.217309,0.258999,0.093918
12.433211,-0.343754,-0.262512,0.063375
12.533211,0.748593,0.129347,-0.278699
12.633211,-0.237467,0.021074,-0.210742
12.733211,-0.815481,-0.558009,-0.100332
12.833211,0.688883,0.237467,-0.005192
12.933211,0.522274,0.583359,0.008552
13.033211,-0.900694,-1.016908,0.346503
13.133211,1.518108,-0.379642,-0.226930
13.233211,0.295956,0.391706,-0.071469
13.333211,-0.751953,0.384528,0.181880
13.433211,0.773180,0.063681,-0.009774
13.533211,0.204634,0.306340,-0.162333
13.633211,-0.323596,-0.356429,0.020769
13.733211,-0.630242,0.102622,0.084602
13.833211,0.599699,0.306798,0.317488
13.933211,0.089184,0.170426,-0.037414
14.033211,-0.565034,-0.242201,-0.056503
14.133211,-0.095903,-0.034360,0.013897
14.233211,0.879162,0.319473,-0.173633
14.333211,-1.208409,-0.018325,-0.012064
14.433211,-0.452791,-0.832890,0.222654
14.533211,0.761574,0.623217,-0.095750
14.633211,0.123544,0.489747,-0.135914
14.733211,0.199136,-0.525939,-0.271369
14.833211,0.090253,-0.323291,-0.480431
14.933211,0.733017,0.046577,-0.141258
15.033211,-0.515402,0.009163,0.170274
15.133211,0.121253,0.042301,0.092085
15.233211,1.662421,-0.040774,-0.056962
15.333211,-0.906345,0.643222,0.278394
15.433211,-1.295302,0.048257,0.144160
15.533211,0.156682,0.084908,-0.186461
15.633211,0.372922,0.093001,-0.220058
15.733211,-0.603364,0.177604,-0.060779
15.833211,-0.599394,0.064292,0.033597
15.933211,0.530063,-0.193639,0.132707
16.033211,1.119225,0.046730,0.007483
16.133211,-1.021489,0.194860,-0.002138
16.233211,-0.417820,-0.249837,0.115297
16.333211,1.394717,-0.257014,-0.046424
16.433211,-0.286640,0.535560,0.310005
16.533211,0.356888,0.816245,-0.267551
16.633211,-0.648567,-0.898404,0.353222
16.733211,0.977050,-0.609167,-0.017715
16.833211,-0.170426,-0.311838,0.239147
16.933211,-0.043676,0.723701,-0.040927
17.033211,-0.507003,-0.466229,0.122017
17.133211,-0.114687,-0.902680,-0.038331
17.233211,0.674681,-0.293359,0.251974
17.333211,0.918409,0.827545,0.376435
17.433211,-0.455234,0.298552,0.176688
17.533211,0.104149,-0.174091,-0.170885
17.633211,0.648109,-0.375060,-0.216240
17.733211,-0.435992,-0.582901,-0.294123
17.833211,0.845413,-0.043217,-0.095903
17.933211,-0.075592,0.426982,0.050089
18.033211,-0.661395,-0.486540,0.221890
18.133211,0.586566,-0.246630,0.009774
18.233211,0.742485,0.127056,0.087962
18.333211,0.062459,-0.215476,0.233955
18.433211,-0.400563,0.372311,0.089489
18.533211,-0.115450,0.168747,0.224639
18.633211,-0.081701,0.722480,0.089642
18.733211,0.264497,-0.088115,0.302369
18.833211,0.787077,-0.035124,-0.092696
18.933211,0.394302,0.829378,-0.267398
19.033211,-0.514792,0.793185,-0.308478
19.133211,-1.952115,-0.235634,-0.145229
19.233211,-0.788451,-0.556329,-0.395676
19.333211,-0.476003,-0.862058,-0.240216
19.433211,-0.777456,-0.522580,0.130263
19.533211,-0.767682,-0.413544,0.494786
19.633211,-0.523343,0.131332,0.564881
19.733211,0.354444,-0.723090,-0.252891
19.833211,0.785855,-0.128125,-0.777456
19.933211,0.625813,0.016187,0.073454
20.033211,-0.010232,0.718051,0.156071
20.133211,-0.605197,0.152254,0.498299
20.233211,-0.135761,0.760658,-0.009774
20.333211,0.001680,-0.478446,-0.013439
20.433211,-0.384070,-0.508378,-0.256098
20.533211,0.353222,-0.486234,-0.243270
20.633211,0.721258,0.215171,0.233955
20.733211,-0.042148,0.331232,0.229526
20.833211,0.235940,0.029015,0.116519
20.933211,0.103233,0.142175,0.085060
21.033211,0.092849,0.148894,-0.098194
21.133211,0.273507,0.265566,-0.302675
21.233211,0.034513,-0.332301,-0.107356
21.333211,-0.133470,-0.095292,0.085671
21.433211,-0.215476,-0.443781,0.287404
21.533211,-0.005650,0.627340,-0.062765
21.633211,-0.130721,-0.419194,0.078188
21.733211,0.113465,-0.322222,-0.117741
21.833211,0.182949,-0.247088,0.070553
21.933211,0.784328,0.268009,0.222348
22.033211,-1.332411,0.185087,0.229068
22.133211,0.146145,-0.064597,-0.038178
22.233211,0.136983,0.072385,-0.110411
22.333211,0.020922,0.198220,0.185087
22.433211,0.192570,0.240674,0.028252
22.533211,-1.040884,-0.165998,0.071316
22.633211,-0.020616,-0.114839,-0.204176
22.733211,0.166303,-0.362843,-0.464244
22.833211,-0.500589,-0.764170,-0.229526
22.933211,0.463175,0.457372,-0.760658
23.033211,0.158973,-0.955671,-0.298246
23.133211,-0.237161,-0.725228,-0.286793
23.233211,1.217571,-0.068109,-0.178978
23.333211,-0.263122,-0.269994,0.078952
23.433211,-0.572364,0.256556,-0.140189
23.533211,0.824796,-0.339936,-0.126751
23.633211,-0.255945,-0.497077,-0.225403
23.733211,0.008246,-0.526856,-0.282975
23.833211,0.709652,-0.410948,-0.287098
23.933211,0.582901,-1.250252,-0.410184
24.033211,10.496952,0.195624,-2.125443
24.133211,-2.633363,0.466382,-0.584123
24.233211,-0.218989,-0.599088,-0.325734
24.333211,-9.127279,-1.486344,0.448820
24.433211,3.126774,1.349514,-0.669183
24.533211,1.265676,-1.765196,-0.220974
24.633211,-0.192111,-0.041843,0.065361
24.733211,1.403116,-0.330927,0.584734
24.833211,-1.566365,0.215018,0.427593
24.933211,-0.554038,0.575265,0.168136
25.033211,-0.060321,0.166456,-0.247699
25.133211,0.201885,-1.053712,-0.404686
25.233211,-0.245102,-0.675292,-0.412016
25.333211,0.794101,-0.509141,-0.445613
25.433211,0.735613,-0.634518,-0.426830
25.533211,1.305228,-1.521621,-0.368952
25.633211,-1.079520,-0.317488,-0.032986
25.733211,-0.236551,-0.511279,0.270911
25.833211,0.844344,-0.424386,0.081701
25.933211,0.096667,-0.089795,0.598172
26.033211,0.065513,-0.103233,0.853964
26.133211,0.167219,0.404992,0.286182
26.233211,0.120642,0.054671,0.147367
26.333211,-0.056351,-0.284808,-0.190890
26.433211,0.035582,-0.179589,-0.176535
26.533211,0.529910,-0.444391,-0.311227
26.633211,0.606419,-0.719884,-0.325429
26.733211,0.240979,0.108884,0.196387
26.833211,-0.692395,0.097888,0.320542
26.933211,0.272896,0.138968,0.234565
27.033211,0.569615,-0.462717,-0.037109
27.133211,-0.647345,-0.283586,-0.280990
27.233211,0.508225,-0.585497,0.022449
27.333211,1.124570,0.477377,-0.076814
27.433211,-1.119225,0.532964,0.195624
27.533211,-2.201494,-0.033291,0.106593
27.633211,0.371853,-0.138510,-0.026725
27.733211,0.900389,-0.193639,0.093612
27.833211,-0.681706,0.563201,-0.124766
27.933211,0.150879,-0.535408,0.159889
28.033211,0.439810,0.779136,-0.012828
28.133211,0.066124,-0.383154,-0.051158
28.233211,0.239910,-0.414154,-0.235176
28.333211,0.009315,-0.156224,-0.102775
28.433211,-0.321611,0.319626,-0.047341
28.533211,-0.222501,-0.412780,0.388041
28.633211,0.252891,0.010079,0.237314
28.733211,-0.225555,0.293359,0.089947
28.833211,0.008246,0.295803,0.071927
28.933211,-0.275034,-0.810900,0.178520
29.033211,-0.037109,0.235787,-0.031153
29.133211,-0.148436,0.366508,0.081090
29.233211,0.364676,0.138051,0.006414
29.333211,-0.889241,-0.076509,-0.446224
29.433211,0.585039,-0.389721,-0.410184
29.533211,0.064444,0.011606,0.036498
29.633211,-0.336577,0.120795,0.320084
29.733211,0.327720,0.049784,0.032222
29.833211,-0.111327,-0.341311,0.114839
29.933211,-0.611153,0.188599,0.018020
30.033211,-0.173175,-0.162638,-0.071316
30.133211,-0.197304,-0.339784,-0.093154
30.233211,-0.300079,-0.145687,-0.278394
30.333211,0.021838,-0.267704,0.355819
30.433211,-0.474476,0.105524,0.478446
30.533211,0.162180,0.151643,0.229526
30.633211,0.193791,0.142175,-0.049020
30.733211,0.369715,-0.150574,-0.046883
30.833211,0.135303,-0.189210,0.046883
30.933211,-0.330316,-0.215629,0.090558
31.033211,0.195777,-0.069178,-0.144465
31.133211,0.464091,0.318710,-0.146756
31.233211,-0.132554,-0.453707,0.081395
31.333211,0.146756,0.214102,0.222348
31.433211,0.103691,0.081090,0.318251
31.533211,-0.076967,-0.154697,0.028099
31.633211,0.042148,-0.038942,-0.014813
31.733211,0.054060,-0.133623,-0.100790
31.833211,0.027030,-0.198220,-0.101401
31.933211,-0.070400,-0.206619,-0.137288
32.033211,-0.388193,0.226013,-0.398425
32.133211,-0.611305,-0.043676,0.097430
32.233211,-0.137593,0.170885,0.073760
32.333211,0.341464,-0.022143,-0.052991
32.433211,1.019809,0.095139,-0.242354
32.533211,0.045203,-1.248419,0.225708
32.633211,0.621079,-0.206161,-0.182338
32.733211,0.319779,-0.346045,0.024281
32.833211,-0.008552,-0.182796,0.138357
32.933211,-0.217920,-0.135303,-0.026572
33.033211,-0.605197,-0.186308,0.156530
33.133211,0.116672,-0.102775,-0.040163
33.233211,0.041843,-0.286182,-0.027794
33.333211,-0.340242,-0.198678,0.020005
33.433211,0.706139,0.384681,0.078188
33.533211,-0.141564,-0.167678,0.497077
33.633211,0.005650,-0.016798,0.127820
33.733211,-0.196693,-0.046577,-0.111174
33.833211,0.365287,0.181574,-0.405144
33.933211,0.916118,-0.411711,-0.223112
34.033211,-0.924212,-0.084602,0.069637
34.133211,0.094223,-0.138815,0.189515
34.233211,-0.049937,0.535866,0.214407
34.333211,0.414918,1.115713,0.248157
34.433211,0.217156,-0.337188,0.152865
34.533211,-0.803722,-0.079716,-0.257167
34.633211,0.035887,-0.271369,-0.323291
34.733211,-0.709346,-0.460121,0.139884
34.833211,0.100943,0.100332,-0.146451
34.933211,-0.318404,-0.279768,-0.045355
35.033211,0.546556,0.297483,0.164929
35.133211,-0.735766,0.971705,-0.307867
35.233211,0.343754,-0.517846,0.352917
35.333211,0.381627,0.013591,0.106440
35.433211,-0.424233,0.158057,0.329705
35.533211,0.595729,0.066582,0.133317
35.633211,-0.891073,-0.233649,0.005650
35.733211,1.134038,2.254026,-0.527314
35.833211,0.254723,-0.107509,-0.165845
35.933211,0.455692,-0.298552,0.046119
36.033211,-0.010995,-0.239605,-0.018631
36.133211,0.182338,-0.187836,0.093460
36.233211,0.257930,0.525176,-0.103844
36.333211,-1.013701,0.106746,0.046577
36.433211,0.177146,-0.130874,0.109800
36.533211,0.342685,0.084450,-0.221279
36.633211,-0.342838,-0.439199,0.074982
36.733211,-0.311532,0.286945,0.043676
36.833211,0.654217,0.545945,0.069026
36.933211,0.381016,0.380863,-0.005345
37.033211,-0.979035,-0.148894,0.196082
37.133211,0.876871,0.056809,-0.065972
37.233211,-0.685981,-0.232733,-0.041232
37.333211,-0.016187,0.030695,-0.329705
37.433211,-0.311379,0.188599,-0.017256
37.533211,-0.251822,-0.178215,0.069026
37.633211,-0.212269,-0.154086,-0.009774
37.733211,-0.306798,-0.653912,0.309394
37.833211,-0.036804,0.157293,-0.060474
37.933211,-0.413391,-0.176840,0.121711
38.033211,0.376435,0.149658,0.162485
38.133211,-0.581068,0.349252,0.064292
38.233211,0.473407,-0.006872,0.214560
38.333211,-0.002443,-0.147825,-0.050089
38.433211,0.226624,0.034207,-0.095445
38.533211,-0.032222,-0.289542,0.097583
38.633211,1.484359,0.618941,-0.204634
38.733211,-0.400410,-0.332606,0.087809
38.833211,-0.580916,-0.461342,-0.052991
38.933211,0.807693,0.230595,0.273660
39.033211,0.299926,0.380252,-0.062001
39.133211,0.150574,-0.664907,-0.183865
39.233211,0.222654,-0.114534,-0.169968
39.333211,-0.403312,-0.278699,0.063223
39.433211,0.127820,-0.720952,0.078341
39.533211,0.424844,-0.144618,-0.191501
39.633211,-0.335813,0.062917,0.380405
39.733211,0.615276,-0.043217,0.189668
39.833211,0.777303,0.239605,-0.597103
39.933211,-0.070400,-0.553428,-0.242506
40.033211,0.755618,-0.289694,0.090558
40.133211,-0.620621,0.222807,0.184934
40.233211,0.818841,0.351390,0.290763
40.333211,-0.639862,0.426371,-0.199900
40.433211,1.093264,-0.291832,0.009163
40.533211,-0.640779,0.154850,0.087198
40.633211,0.585497,0.696060,-0.234107
40.733211,-0.080479,0.091780,0.258388
40.833211,0.929099,0.635128,-0.397203
40.933211,-0.076509,0.026877,-0.119268
41.033211,-0.857477,0.162638,-0.177604
41.133211,1.066845,0.269384,-0.138510
41.233211,0.543654,-0.301911,0.200205
41.333211,-0.452943,0.131179,0.248615
41.433211,0.867556,-0.299773,0.078341
41.533211,-0.339936,0.514792,-0.038178
41.633211,-0.059558,0.322986,-0.078036
41.733211,-0.540753,-0.314128,0.070858
41.833211,-0.196540,-0.315655,0.049479
41.933211,0.115756,0.505476,0.262206
42.033211,-0.245561,0.117130,0.077883
42.133211,0.399800,0.011148,-0.331995
42.233211,-0.367425,0.106898,-0.343602
42.333211,0.116825,-0.393386,-0.236551
42.433211,0.336577,-0.153017,-0.272743
42.533211,-0.153170,-0.172717,0.199594
42.633211,0.431564,0.302828,0.118963
42.733211,0.335813,0.175313,0.255334
42.833211,-0.133470,0.108731,-0.072233
42.933211,0.674223,0.096056,0.099721
43.033211,-0.197762,0.376282,-0.154850
43.133211,1.300188,0.309700,-0.212575
43.233211,-1.185044,-0.152101,0.188752
43.333211,0.634212,0.461190,-0.373228
43.433211,0.127820,0.302522,-0.112854
43.533211,0.348641,-0.019700,0.041538
43.633211,0.429426,-0.236092,0.168288
43.733211,0.527008,-0.232427,0.056351
43.833211,0.530826,0.404839,0.106746
43.933211,0.798836,-0.068873,-0.075440
44.033211,-0.992779,-0.092238,0.123391
44.133211,-0.186767,0.025503,-0.343449
44.233211,-0.256250,0.305882,0.013133
44.333211,0.119115,-0.239147,0.102317
44.433211,-0.554649,0.763101,-0.021838
44.533211,-0.009621,-0.185850,0.028099
44.633211,0.314434,0.154850,0.039094
44.733211,0.164776,-0.375976,0.210131
44.833211,-1.294538,0.166761,0.078036
44.933211,0.549152,-0.349710,-0.075898
45.033211,-0.432480,0.254571,0.071927
45.133211,-0.513875,-0.222654,0.156071
45.233211,0.833501,0.005345,-0.300690
45.333211,-0.399341,0.038636,-0.124460
45.433211,-0.193028,0.512348,-0.047799
45.533211,-0.569768,-0.797461,0.363149
45.633211,0.634059,0.558467,-0.458594
45.733211,-0.189821,-0.123544,-0.174091
45.833211,-1.149767,0.503185,0.048257
45.933211,1.410599,-0.013439,-0.017562
46.033211,-0.229220,-0.203107,0.147367
46.133211,-0.661089,0.460732,0.038789
46.233211,0.742790,0.536171,0.173786
46.333211,-0.625966,-0.049326,-0.125987
46.433211,0.818993,-0.012981,-0.382390
46.533211,-0.812274,-0.313517,0.043828
46.633211,0.693006,0.983770,-0.390790
46.733211,0.128736,-0.233038,0.235023
46.833211,-0.845260,-0.380405,0.101553
46.933211,0.870457,0.222043,-0.231053
47.033211,-0.484707,0.372464,0.097888
47.133211,0.264344,-0.035582,0.104455
47.233211,-0.289236,0.020463,-0.011148
47.333211,0.208910,0.261748,-0.226166
47.433211,0.173481,0.458899,-0.088267
47.533211,0.009774,0.323749,0.139731
47.633211,1.025307,0.041232,0.163096
47.733211,-0.691021,0.048410,0.350168
47.833211,0.407435,0.394149,-0.059099
47.933211,-0.133165,0.362691,-0.124155
48.033211,-0.558773,0.008246,-0.024434
48.133211,0.199289,-0.127972,-0.130569
48.233211,-0.135914,-0.647040,0.202649
48.333211,0.809525,0.301911,-0.340547
48.433211,0.098194,-0.042607,0.014660
48.533211,0.217309,0.129805,-0.022754
48.633211,-1.197566,-0.117894,-0.084450
48.733211,0.174091,-0.720952,0.110258
48.833211,0.465771,0.032375,-0.002596
48.933211,-0.046272,-0.228304,0.156988
49.033211,0.203565,0.106898,-0.009315
49.133211,-0.499520,-0.190126,0.153017
49.233211,0.344823,0.038789,0.180505
49.333211,0.422248,0.439963,0.136830
49.433211,-0.194860,0.177757,0.016493
49.533211,-0.166150,-0.255487,-0.079563
49.633211,0.858240,0.164012,-0.260832
49.733211,-0.010995,-0.032222,0.001833
49.833211,-0.323902,-0.252280,-0.030848
49.933211,0.102622,-0.493259,-0.052838
50.033211,0.302522,-0.142480,-0.225861
50.133211,-0.080479,-0.122780,-0.069789
50.233211,-0.494175,-0.419499,0.240979
50.333211,-0.244186,-0.022296,0.246477
50.433211,0.457066,0.193944,0.391859
50.533211,-0.313059,-0.087657,0.254723
50.633211,-0.392469,-0.554191,0.259610
50.733211,0.328789,-0.005192,-0.125987
50.833211,-0.268620,-0.176077,0.102011
50.933211,-0.652385,0.071469,-0.062154
51.033211,0.523954,-0.789520,0.134692
51.133211,-0.510363,0.298093,-0.089489
51.233211,0.019547,0.534186,-0.068109
51.333211,-0.367119,0.118657,-0.012217
51.433211,-0.464702,-1.286750,0.072538
51.533211,0.391248,-0.149352,-0.142938
51.633211,0.339784,0.393844,-0.054671
51.733211,-0.214102,-0.119726,0.205092
51.833211,0.859615,0.254876,-0.066277
51.933211,0.274881,0.509141,0.154850
52.033211,-0.156224,0.438894,-0.094529
52.133211,-0.081701,-0.248157,-0.274729
52.233211,0.492954,0.386514,-0.583970
52.333211,0.681553,0.460732,0.016187
52.433211,-1.121210,0.181727,0.267398
52.533211,0.310463,0.222348,-0.171495
52.633211,0.185239,0.176077,-0.187072
52.733211,-0.482722,-0.511279,0.138815
52.833211,0.036040,-0.395524,0.131027
52.933211,0.268162,-0.080174,-0.027794
53.033211,-0.770584,-0.021074,0.120184
53.133211,0.086588,-0.083075,0.227846
53.233211,-0.073149,0.388652,0.075440
53.333211,-0.303286,0.605655,-0.203870
53.433211,0.278699,-0.025350,-0.177604
53.533211,0.726908,0.401174,-0.324054
53.633211,-0.039858,-0.134386,-0.249378
53.733211,0.079716,-0.485929,-0.069789
53.833211,-0.027030,-0.111785,-0.184323
53.933211,0.038331,-0.659410,0.132248
54.033211,-0.987435,0.069484,0.406213
54.133211,0.623828,-0.003665,0.261290
54.233211,0.143396,0.296872,0.031000
54.333211,-0.231817,-0.122933,0.245713
54.433211,0.759130,0.384834,-0.078647
54.533211,-0.702016,-0.180658,-0.222807
54.633211,-0.062917,-0.232275,0.039858
54.733211,0.189974,0.741416,-0.059710
54.833211,-0.091780,0.123849,0.244950
54.933211,0.671779,0.324360,-0.293054
55.033211,-0.222196,-0.247851,-0.191959
55.133211,-0.117130,-0.404075,0.075592
55.233211,0.106746,0.295192,0.204634
55.333211,-0.178826,0.242354,0.129652
55.433211,0.676208,-0.388041,0.012828
55.533211,-0.154239,-0.049784,-0.083991
55.633211,0.411864,-0.153170,0.364676
55.733211,-0.184781,-0.117283,0.049479
55.833211,0.210742,-0.217614,0.125835
55.933211,0.541974,0.521511,-0.188141
56.033211,-0.102622,-0.649789,0.268620
56.133211,1.529409,0.782037,-0.625049
56.233211,-1.252695,-0.932611,-0.052838
56.333211,0.710721,0.776998,-0.363301
56.433211,-0.869236,0.216851,0.008094
56.533211,0.147672,-0.177146,0.191195
56.633211,-0.749662,0.030084,0.073760
56.733211,1.176186,-0.366814,-0.243728
56.833211,-0.805249,-0.119268,0.038331
56.933211,1.106550,0.402854,0.112396
57.033211,-0.787077,0.522580,-0.042912
57.133211,0.536782,-0.208452,0.138051
57.233211,-0.279310,0.237314,0.017715
57.333211,-0.808151,-0.695450,0.077425
57.433211,0.606877,0.454165,-0.368035
57.533211,-0.695755,-0.059252,-0.057267
57.633211,0.862211,0.151337,-0.010690
57.733211,-0.597867,0.811052,-0.120948
57.833211,1.469851,-0.243423,-0.074218
57.933211,-0.307103,-0.059099,-0.135150
58.033211,0.396440,-0.321458,0.179742
58.133211,-0.118810,-0.160653,0.072538
58.233211,0.340547,0.311532,0.110258
58.333211,-0.516319,-0.070095,-0.085671
58.433211,0.431869,-0.511279,0.018173
58.533211,0.080479,0.178826,-0.119268
58.633211,-0.036040,0.069026,-0.194708
58.733211,0.521053,-0.379489,-0.005956
58.833211,0.293665,0.080632,0.072538
58.933211,-1.282932,0.581679,0.350321
59.033211,0.212728,-0.283128,0.467909
59.133211,-0.182338,0.203259,-0.262970
59.233211,0.324207,-0.286793,-0.104455
59.333211,-0.367730,0.058336,-0.158362
59.433211,0.120337,0.494175,-0.283891
59.533211,0.007788,-0.454165,-0.052227
59.633211,0.287098,0.395676,-0.184170
59.733211,-0.238841,0.305882,0.171953
59.833211,0.587024,0.184934,0.122628
59.933211,-0.791353,0.226319,0.082006
60.033211,0.728741,0.090864,-0.028557
60.133211,-1.009731,0.111174,0.064597
60.233211,0.493717,-0.026725,-0.078494
60.333211,-0.262664,-0.101859,0.149199
60.433211,0.089489,-0.023059,0.103997
60.533211,-0.016798,0.081395,-0.124918
60.633211,0.058030,-0.372311,0.311838
60.733211,-0.268467,-0.474934,0.090864
60.833211,0.150421,0.281448,0.082464
60.933211,0.249989,0.582290,-0.032222
61.033211,-0.000611,0.002291,-0.058489
61.133211,0.199442,0.014966,-0.310463
61.233211,0.154239,-0.633143,-0.077883
61.333211,-0.058641,0.078341,-0.038942
61.433211,0.416903,-0.144160,0.065972
61.533211,0.687203,-0.210742,-0.062612
61.633211,0.010232,0.148436,-0.292901
61.733211,0.389721,-0.243881,-0.039552
61.833211,-0.583512,-0.439352,0.152865
61.933211,0.867098,-0.074676,0.032986
62.033211,-0.517846,-0.716218,0.031000
62.133211,0.461037,-0.077119,0.166609
62.233211,-0.176229,0.460732,0.290611
62.333211,0.028710,-0.042454,0.049784
62.433211,0.160042,0.062459,-0.106440
62.533211,0.636350,0.256250,-0.116977
62.633211,-0.274576,0.042148,0.030695
62.733211,0.081090,-0.214102,-0.008705
62.833211,0.228915,0.064750,0.066582
62.933211,-0.491579,0.464397,-0.120642
63.033211,0.100332,0.008705,-0.087809
63.133211,0.516319,-0.180200,-0.432938
63.233211,-0.355666,-0.774249,0.092543
63.333211,0.663838,0.512043,-0.035887
63.433211,-0.567935,-0.113923,0.446835
63.533211,0.342227,0.157751,0.169052
63.633211,-0.276103,0.092849,-0.070553
63.733211,-0.373991,-1.110520,0.118199
63.833211,0.121406,0.376282,-0.041996
63.933211,0.623980,0.126140,0.015577
64.033211,-0.094987,-0.017104,0.130721
64.133211,0.273354,-0.126751,-0.215476
64.233211,-0.153934,-0.413849,0.089184
64.333211,0.657577,0.044134,0.135303
64.433211,1.296371,0.127514,-0.051464
64.533211,0.145840,0.016340,-0.024587
64.633211,-0.488067,-0.387888,-0.071469
64.733211,-0.052227,0.649942,-0.202954
64.833211,-0.211964,-0.464397,0.094529
64.933211,0.391400,0.072691,-0.038025
65.033211,-0.068568,0.494328,0.065361
65.133211,0.631311,-0.503491,0.082006
65.233211,-0.159431,0.443933,-0.190279
65.333211,-0.362538,-0.242659,-0.038025
65.433211,0.186614,-1.117087,0.086893
65.533211,-0.629020,-0.009163,-0.095292
65.633211,0.555107,-0.280379,-0.010537
65.733211,-0.311990,0.577403,0.002443
65.833211,-0.083839,0.604433,0.008094
65.933211,0.584428,0.565645,-0.191653
66.033211,-0.241285,-0.685371,0.107967
66.133211,0.389415,-0.541974,-0.072538
66.233211,-0.607946,-0.019394,0.022754
66.333211,-1.498561,-0.393996,-0.004429
66.433211,0.833196,-0.260221,-0.041538
66.533211,-0.790895,0.201580,-0.006261
66.633211,-0.354291,-0.186461,0.216393
66.733211,-0.206314,0.414765,0.177298
66.833211,1.197719,0.569157,-0.336424
66.933211,-0.108273,-0.162027,-0.017867
67.033211,0.851979,-0.242048,-0.052227
67.133211,-0.180811,0.080326,-0.305118
67.233211,-0.005039,0.701100,-0.370173
67.333211,-1.196955,-0.135455,0.071927
67.433211,0.150574,0.127514,-0.250295
67.533211,1.796196,-0.642917,-0.248462
67.633211,-1.261094,-0.320389,0.268315
67.733211,0.773027,-0.679109,0.391553
67.833211,0.140037,-0.031000,0.116977
67.933211,0.326040,0.708583,0.169357
68.033211,1.209325,0.560758,-0.069026
68.133211,0.953074,0.322986,-0.052380
68.233211,-1.254222,-0.361469,0.121559
68.333211,1.355012,0.552969,-0.311532
68.433211,0.636350,0.605655,-0.218989
68.533211,-1.533379,-0.130263,-0.057267
68.633211,0.609320,-0.377656,-0.000305
68.733211,0.504254,0.179131,0.043217
68.833211,-0.028099,0.148283,0.227999
68.933211,0.524107,0.162791,0.228762
69.033211,0.370632,-0.015729,0.184170
69.133211,-0.205092,0.913217,-0.011912
69.233211,-0.315655,-0.216851,0.038025
69.333211,0.161416,0.132707,-0.000764
69.433211,-0.409573,0.190126,0.002902
69.533211,0.570379,0.563201,-0.251974
69.633211,0.116519,-0.192111,-0.113465
69.733211,0.514333,-0.214407,-0.063681
69.833211,-0.795323,0.010384,0.126293
69.933211,0.728130,0.307103,-0.276867
70.033211,-0.118352,-0.459663,0.081548
70.133211,-1.100899,0.018936,-0.020616
70.233211,1.221236,-0.075592,0.093918
70.333211,-0.591147,0.096208,0.085366
70.433211,0.368341,0.076356,-0.129041
70.533211,-0.918714,-0.354444,0.146603
70.633211,0.995376,0.361163,-0.070247
70.733211,-0.906497,-0.848161,0.267857
70.833211,0.742332,-0.005803,-0.394455
70.933211,-0.342838,-0.017715,-0.586566
71.033211,-0.990489,-0.035735,0.170274
71.133211,0.402090,0.061237,0.272285
71.233211,0.351390,-0.207993,-0.005345
71.333211,0.074982,-0.456914,0.018631
71.433211,0.920700,-0.192264,0.327872
71.533211,-0.244033,-0.914286,0.504865
71.633211,-0.204787,0.987282,-0.214102
71.733211,-0.186461,0.295803,-0.091322
71.833211,-0.150268,0.149810,0.142633
71.933211,0.077730,0.776234,-0.229526
72.033211,0.694228,-0.067804,-0.306187
72.133211,-0.210742,-0.245866,0.283891
72.233211,-0.415987,0.179284,-0.019242
72.333211,-0.311685,-0.514028,0.034513
72.433211,-0.308478,0.238689,-0.026725
72.533211,-0.277172,-0.163707,0.102317
72.633211,0.093918,-1.485275,0.469589
72.733211,-0.186919,1.009120,0.060016
72.833211,-0.339631,1.541320,0.468367
72.933211,0.659562,0.179895,-0.012828
73.033211,-0.069026,-0.456303,-0.841137
73.133211,-1.516428,-0.446987,-0.142022
73.233211,0.729810,-0.583665,-0.238536
73.333211,0.549152,-0.145076,-0.329399
73.433211,0.749662,-0.281295,0.077578
73.533211,-0.169816,-0.250447,0.056351
73.633211,0.428509,0.470047,0.052227
73.733211,-0.729352,0.167067,0.414154
73.833211,0.897487,-1.173896,0.211659
73.933211,-0.875955,0.100943,-0.417056
74.033211,-1.097998,1.679066,-0.257778
74.133211,0.296566,-0.233344,0.285724
74.233211,0.152101,0.383307,0.460732
74.333211,-1.900193,0.354139,0.297330
74.433211,0.460426,0.137288,-0.088115
74.533211,-1.874843,-0.393691,0.519984
74.633211,1.192527,0.762796,-0.204176
74.733211,0.468978,-0.020005,-0.011453
74.833211,-0.457372,0.216851,-0.557245
74.933211,0.841137,-0.572669,0.275187
75.033211,0.443933,-0.123391,-0.076509
75.133211,-0.196387,0.038178,-0.759589
75.233211,0.056962,-0.565034,-0.112549
75.333211,0.848620,0.070095,0.010995
75.433211,-1.969524,-0.313975,0.491427
75.533211,1.323553,1.761989,-0.209215
75.633211,-0.712706,-0.212728,0.290458
75.733211,-0.225708,-0.401021,-0.152712
75.833211,-0.220058,0.846329,-0.074523
75.933211,-1.522384,0.549304,-0.164318
76.033211,0.127514,-0.314586,-0.227082
76.133211,-0.846023,0.014966,0.015882
76.233211,0.909246,-0.135761,-0.071011
76.333211,-2.119793,0.341311,0.205397
76.433211,1.255138,-0.052991,-0.268926
76.533211,0.743707,-0.998124,-0.294123
76.633211,-1.151447,-0.266635,0.609473
76.733211,2.246238,-1.092042,0.414307
76.833211,-2.081920,0.801584,0.470047
76.933211,1.558730,0.977508,-0.089031
77.033211,-1.414875,-0.222196,-0.130874
77.133211,1.046381,-1.691131,-0.760352
77.233211,0.620926,-1.554606,-0.389415
77.333211,-0.417056,1.186418,-0.220516
77.433211,0.218989,-0.177298,0.395065
77.533211,1.485886,0.039552,0.217920
77.633211,0.282059,0.733017,0.243270
77.733211,-0.086435,0.415987,-0.053755
77.833211,1.414264,-0.490663,-0.350626
77.933211,-1.878814,0.216851,0.128583
78.033211,0.597103,-0.807845,0.081548
78.133211,-0.560605,0.463633,0.058641
78.233211,0.632074,0.159584,0.186308
78.333211,-0.597561,-0.196693,0.014355
78.433211,0.322069,-0.313823,-0.219294
78.533211,-0.439046,-0.310921,-0.291680
78.633211,0.450194,-0.627493,-0.106135
78.733211,-0.820826,-0.147367,-0.102622
78.833211,0.234260,-0.383307,-0.030848
78.933211,-0.084755,-0.224334,0.156377
79.033211,0.596187,-0.036345,-0.179742
79.133211,0.046577,-0.534949,0.155155
79.233211,-0.892448,0.266177,0.043828
79.333211,-0.331079,0.124918,0.019853
79.433211,-0.192264,-0.559842,-0.193180
79.533211,0.365134,-0.020005,-0.010843
79.633211,0.845871,-0.545181,0.250600
79.733211,0.151643,0.449431,0.057572
79.833211,-0.122017,0.301300,0.017867
79.933211,0.176993,-0.361774,0.087962
80.033211,-0.698962,0.382390,-0.307562
80.133211,1.384791,0.633296,-0.510363
80.233211,0.179589,-1.383874,0.226472
80.333211,-0.270300,-0.146145,0.057572
80.433211,-0.247088,-0.530521,0.360553
80.533211,0.468214,0.530063,0.150421
80.633211,-0.859767,0.852590,-0.048868
80.733211,0.628409,-0.455081,-0.138204
80.833211,-0.101095,-0.186003,-0.373839
80.933211,-0.465618,0.107662,0.108731
81.033211,0.473101,0.440115,0.330163
81.133211,0.356582,-0.574502,0.194402
81.233211,0.714539,0.374907,-0.117283
81.333211,1.939287,0.525176,0.032375
81.433211,-2.829292,0.384986,0.290611
81.533211,0.217462,-0.322222,0.085671
81.633211,0.233496,0.850299,0.011759
81.733211,-0.095750,-0.506392,0.109800
81.833211,-0.186614,-0.563048,-0.266024
81.933211,-0.105677,-0.171190,0.108425
82.033211,0.563812,-0.163554,0.198983
82.133211,1.280030,0.501964,0.009010
82.233211,-0.427593,-0.155002,-0.147520
82.333211,-0.076814,-0.289389,-0.172717
82.433211,-0.085671,0.431716,-0.209521
82.533211,-1.091431,-0.547166,0.238230
82.633211,0.824796,0.063375,-0.037567
82.733211,0.774707,0.125071,0.068262
82.833211,0.136524,-0.257472,0.118810
82.933211,0.644444,0.085824,-0.137135
83.033211,0.534339,0.259916,-0.190890
83.133211,-0.538156,0.175160,-0.034971
83.233211,-0.070095,0.084755,0.013591
83.333211,1.319583,0.349863,-0.179436
83.433211,-0.303591,-0.216087,0.117435
83.533211,0.438894,-0.839762,-0.085671
83.633211,0.490052,0.006567,-0.168136
83.733211,-0.000916,-0.198373,0.021074
83.833211,0.189210,0.312754,0.339173
83.933211,-0.446682,0.285418,0.167067
84.033211,-0.321153,0.454165,0.049020
84.133211,0.820979,0.403006,-0.093307
84.233211,-0.578320,0.206008,0.258236
84.333211,-0.433549,0.900236,-0.137441
84.433211,0.042454,-0.618025,-0.281753
84.533211,0.082006,0.225403,-0.142938
84.633211,-0.080785,0.071011,0.175313
84.733211,-0.456608,-0.018325,0.136219
84.833211,0.300690,0.085366,0.005956
84.933211,0.103386,-0.182796,0.138968
85.033211,-0.331995,-0.854575,0.313823
85.133211,0.195166,0.015882,-0.211200
85.233211,0.092238,0.187836,-0.044286
85.333211,-0.337035,-0.088267,-0.071622
85.433211,-0.446224,-0.497382,-0.073607
85.533211,0.549304,-0.549304,0.001985
85.633211,0.530063,-0.088420,0.054824
85.733211,-1.045160,-0.004123,0.142022
85.833211,0.737140,0.076203,-0.212269
85.933211,0.586719,-0.264650,-0.143855
86.033211,-0.554497,0.014202,0.094987
86.133211,0.086740,-0.096667,0.056962
86.233211,0.773027,0.493565,-0.344671
86.333211,-0.229679,0.379642,-0.023670
86.433211,-0.314586,-0.165692,0.098805
86.533211,0.404686,0.218683,-0.138204
86.633211,-0.496466,0.539684,-0.204634
86.733211,0.563048,-0.269078,-0.341005
86.833211,-0.183254,-0.331995,0.071927
86.933211,-0.053449,0.073149,0.241896
87.033211,0.138051,0.748746,0.056962
87.133211,0.141106,0.026725,0.065055
87.233211,0.586872,-0.276256,0.067346
87.333211,0.071011,-0.312296,0.059558
87.433211,-0.238383,0.806013,-0.198831
87.533211,0.304355,0.280379,0.134081
87.633211,0.681553,0.729504,-0.357804
87.733211,-1.582247,-0.500742,0.087657
87.833211,0.847245,-0.489594,-0.043981
87.933211,0.040621,0.417209,0.237314
88.033211,-0.494786,0.288014,0.277783
88.133211,-0.042454,-0.447904,-0.042454
88.233211,-0.404686,0.214560,-1.424496
88.333211,-0.433396,-1.055086,0.293818
88.433211,-0.024587,0.423012,-0.028557
88.533211,-0.618483,0.222196,0.145534
88.633211,1.119530,0.322680,-0.317488
88.733211,-0.275798,0.746455,-0.058947
88.833211,0.024587,0.349863,0.164929
88.933211,-0.948646,-0.261137,0.293207
89.033211,0.477072,0.357956,-0.050395
89.133211,0.507461,0.051617,0.259152
89.233211,-0.112549,-0.188599,0.232427
89.333211,0.371090,0.009621,-0.209062
89.433211,0.115297,-0.006108,-0.226166
89.533211,0.187683,-0.580458,-0.146451
89.633211,-0.080632,0.389721,-0.237009
89.733211,-0.757145,-0.429120,0.008094
89.833211,0.247699,-0.512959,-0.006719
89.933211,-0.420416,0.010384,-0.054824
90.033211,0.222043,-0.184170,-0.071164
90.133211,-0.195318,-0.311227,-0.122475
90.233211,-0.122322,-0.105982,0.134692
90.333211,0.272591,0.257778,0.173481
90.433211,0.093918,-0.097736,0.288014
90.533211,-0.038483,0.166761,-0.031000
90.633211,0.171190,0.187377,-0.196998
90.733211,0.337799,-0.291527,0.017409
90.833211,0.043370,0.128889,0.191959
90.933211,-0.480279,0.088267,-0.100026
91.033211,-0.640321,0.449431,0.052533
91.133211,-0.088267,-0.208146,0.100790
91.233211,-0.617872,0.488525,-0.274423
91.333211,0.067346,-0.404228,-0.258847
91.433211,0.351084,-0.060627,-0.062154
91.533211,-0.398578,0.718814,-0.068873
91.633211,1.393495,0.080021,0.072844
91.733211,-0.021532,-0.648872,0.363454
91.833211,0.537240,0.051922,0.146756
91.933211,1.375628,-1.480388,-0.063986
92.033211,-0.829531,-0.196082,-0.005803
92.133211,1.367534,-0.229984,-0.056809
92.233211,-0.501200,-0.072080,-0.087504
92.333211,-0.737903,-0.466840,0.190432
92.433211,0.873664,0.390790,0.148283
92.533211,-0.685065,0.219141,0.264191
92.633211,0.954296,-0.141411,-0.217156
92.733211,-0.273201,0.171343,-0.126293
92.833211,-0.395829,0.103386,-0.084908
92.933211,-0.604739,-0.179742,0.097736
93.033211,0.226166,0.336119,-0.114381
93.133211,-0.691174,0.523191,0.084297
93.233211,0.489441,0.648262,-0.275187
93.333211,-0.460273,-0.713164,-0.289389
93.433211,-0.346961,-0.002749,-0.262970
93.533211,-0.039247,-0.098499,0.165387
93.633211,-0.124155,0.354597,0.172412
93.733211,-1.085781,-0.704307,0.217462
93.833211,0.344823,0.634059,-0.233802
93.933211,-0.707514,-0.136677,0.379794
94.033211,-0.129500,0.702474,-0.051769
94.133211,0.612527,-0.632532,-0.305576
94.233211,-0.189668,0.441643,-0.190279
94.333211,-0.466993,0.088878,0.489594
94.433211,0.756229,0.523954,-0.336119
94.533211,0.329858,-0.495092,-0.213644
94.633211,0.367577,-0.103691,0.129958
94.733211,0.435381,0.590537,0.168747
94.833211,-1.049741,-0.773180,0.468214
94.933211,0.540447,-0.215629,0.075134
95.033211,0.316877,-0.133165,-0.278241
95.133211,-0.406672,-0.136066,-0.211811
95.233211,0.281906,0.370173,0.259763
95.333211,0.460426,0.216698,0.325276
95.433211,-0.416445,0.393538,0.356124
95.533211,0.585650,0.607946,0.076509
95.633211,-0.918562,0.266482,-0.130721
95.733211,-0.091933,-0.033902,0.067346
95.833211,0.055740,-0.156530,-0.042148
95.933211,0.251516,0.311990,-0.470200
96.033211,-0.596340,-0.128431,-0.102317
96.133211,-0.190737,-0.012981,-0.138051
96.233211,0.095292,0.094070,-0.241132
96.333211,0.650552,-0.203718,-0.189363
96.433211,-0.617108,-0.138662,0.101553
96.533211,0.930931,0.429273,-0.103844
96.633211,-0.698657,0.063070,0.037414
96.733211,0.435992,-0.167830,0.000764
96.833211,-0.317182,0.014202,0.224945
96.933211,-0.133317,-0.561979,0.010079
97.033211,-0.219141,-0.460426,-0.335508
97.133211,0.050548,-0.023518,-0.136066
97.233211,0.002443,-0.186919,-0.059252
97.333211,0.496619,0.460273,-0.045508
97.433211,0.880384,0.096514,-0.148894
97.533211,-0.535408,-0.039705,-0.006872
97.633211,0.886187,-0.051922,0.073454
97.733211,0.788757,-0.024128,-0.472643
97.833211,-0.208757,-0.135914,-0.278546
97.933211,0.119573,-0.354139,-0.229984
98.033211,-0.188141,0.051617,-0.390179
98.133211,0.073607,-0.066582,-0.436298
98.233211,0.019089,-0.244492,-0.246019
98.333211,0.256403,-0.117283,0.186156
98.433211,-2.196149,-1.352721,0.358567
98.533211,2.183321,-0.522427,-0.296566
98.633211,1.630657,-1.013243,0.223112
98.733211,4.092524,-0.774554,-1.030499
98.833211,-1.285223,-1.852242,-0.519984
98.933211,1.219557,-0.560300,-0.532506
99.033211,-0.893975,0.879009,0.585802
99.133211,-0.220974,0.299773,0.340547
99.233211,0.140342,0.206619,-0.180353
99.333211,-0.591606,-0.668420,-0.288167
99.433211,0.122628,0.101706,-0.355666
99.533211,-1.359899,-0.205856,0.015271
99.633211,0.403312,-0.567477,-0.145687
99.733211,0.644902,-0.935665,-0.168441
99.833211,-1.769930,-0.100484,-0.380863
99.933211,1.095402,-0.650552,-0.122933
100.033211,0.826476,-0.394760,-0.213186
100.133211,-0.002596,-0.499215,-0.118504
100.233211,-0.115450,0.056656,-0.001069
100.333211,0.982853,-0.602754,-0.108731
100.433211,-0.056809,-0.767682,0.237161
100.533211,-0.789978,-0.057878,0.035735
100.633211,1.592326,-1.183975,-0.361927
100.733211,-1.290568,-0.230900,-0.366661
100.833211,2.114600,-0.756076,-0.709346
100.933211,0.276867,0.029779,-0.193180
101.033211,-0.196235,-1.634016,0.310310
101.133211,0.001527,-0.885576,-0.126140
101.233211,1.518414,-0.310769,-0.227693
101.333211,-0.112854,-0.922532,0.078647
101.433211,0.766002,-0.713775,0.395218
101.533211,-1.167329,0.311685,0.504407
101.633211,-0.028710,-0.054824,0.128278
101.733211,-0.096972,-0.410337,-0.165692
101.833211,0.945133,0.096056,-0.511737
101.933211,-0.158057,-0.693770,-0.027488
102.033211,0.267551,-0.387735,0.020311
102.133211,0.109342,0.262359,0.169663
102.233211,0.138510,0.241285,0.281448
102.333211,0.332148,0.458441,0.144618
102.433211,0.019089,-0.385903,-0.002596
102.533211,-0.424692,-0.335202,-0.189974
102.633211,0.181880,-0.208146,0.270147
102.733211,-0.409726,-0.501506,0.292749
102.833211,-0.155308,0.056809,0.338257
102.933211,-0.112090,0.199289,0.158057
103.033211,-0.445308,0.039400,-0.036498
103.133211,0.434160,-0.707667,-0.127667
103.233211,-0.613443,0.620163,-0.290152
103.333211,-0.585955,-0.127514,0.059252
103.433211,-0.972927,0.373228,0.297941
103.533211,2.759502,0.517388,-0.080479
103.633211,-0.459357,-0.534949,0.089336
103.733211,-0.450347,0.026266,0.067651
103.833211,0.427288,-0.121100,0.097430
103.933211,-0.649636,0.207688,-0.246171
104.033211,0.042607,-0.385292,0.305118
104.133211,-0.821895,0.527161,-0.085519
104.233211,0.688425,0.192570,-0.075287
104.333211,-0.451263,0.453707,-0.253043
104.433211,-0.076203,-0.040774,-0.379489
104.533211,-0.217920,-0.548388,-0.179284
104.633211,-0.187530,-0.253196,-0.134997
104.733211,-0.751189,-0.097583,0.156377
104.833211,0.031764,0.022143,0.273812
104.933211,-0.553580,0.313212,0.179131
105.033211,0.154392,-0.257472,0.170732
105.133211,0.191806,-0.237467,0.052533
105.233211,0.063223,0.250600,-0.131179
105.333211,1.098914,-0.142786,-0.149047
105.433211,-0.327109,0.405297,0.059099
105.533211,0.062459,-0.213491,0.206772
105.633211,0.099874,-0.436145,-0.081243
105.733211,-0.120490,-0.694381,-0.070400
105.833211,-0.024434,0.040163,0.166914
105.933211,-0.053449,0.594202,0.294123
106.033211,-0.927266,-0.270300,0.480126
106.133211,0.074676,-0.221738,0.034971
106.233211,0.130569,0.195318,0.044286
106.333211,-0.734086,0.065208,0.287709
106.433211,0.577861,-0.329705,-0.089031
106.533211,-0.927113,-0.274729,-0.162944
106.633211,0.303438,0.298399,-0.159278
106.733211,1.743053,-0.211659,0.015424
106.833211,-0.635281,0.533575,-0.363760
106.933211,0.246630,0.215782,-0.341616
107.033211,-0.351695,-0.031000,0.200358
107.133211,0.848314,0.041079,0.239299
107.233211,1.500852,-0.083533,-0.060779
107.333211,-0.849383,1.435033,-0.210895
107.433211,-0.882216,-0.135150,0.055434
107.533211,0.255029,0.250447,0.134845
107.633211,-0.237620,0.367425,-0.450194
107.733211,-0.018631,-0.478141,-0.308783
107.833211,-0.343296,-0.305729,-0.127209
107.933211,0.320084,0.217767,0.028404
108.033211,-0.824186,0.074829,0.192264
108.133211,0.431716,-0.410948,0.311074
108.233211,0.126751,0.407282,0.264802
108.333211,0.052227,0.250600,0.060321
108.433211,-0.103080,-0.372464,0.139273
108.533211,0.082770,0.221432,-0.370632
108.633211,-0.135761,-0.268162,0.046730
108.733211,-0.451722,0.260984,0.195929
108.833211,0.520595,0.099874,0.048410
108.933211,0.018020,0.120795,-0.071164
109.033211,-0.314281,0.127209,0.099568
109.133211,0.100943,-0.413085,0.213338
109.233211,-0.405450,0.102928,0.102775
109.333211,-0.401937,0.403617,-0.005192
109.433211,0.490816,-0.377504,0.204787
109.533211,0.261443,0.290763,-0.027335
109.633211,0.730879,0.268315,-0.399647
109.733211,-0.323291,-1.471378,0.148283
109.833211,-0.304813,-0.006261,-0.253807
109.933211,1.088072,-0.374144,-0.115756
110.033211,-0.689341,-0.026114,-0.282517
110.133211,0.685523,-0.883591,0.048715
110.233211,0.187377,0.414307,-0.157599
110.333211,0.003665,0.404534,0.106287
110.433211,-0.064903,0.620010,-0.385903
110.533211,-0.776540,0.470658,-0.211659
110.633211,-0.120948,0.438894,0.456303
110.733211,-0.078952,-0.282822,0.373991
110.833211,0.796087,-0.430036,-0.069484
110.933211,-0.623675,0.462259,-0.430800
111.033211,0.355971,-0.880689,0.123238
111.133211,-0.019700,0.070553,-0.229984
111.233211,0.698198,-0.028557,-0.059558
111.333211,-0.941926,-0.691632,0.118352
111.433211,1.211157,0.329858,-0.000153
111.533211,-0.957045,0.573433,0.521511
111.633211,0.214866,0.455081,0.198373
111.733211,0.481348,0.187377,-0.054213
111.833211,-1.226581,-0.149963,-0.363454
111.933211,0.692548,-0.598478,-0.189821
112.033211,-0.653301,-0.352612,-0.011606
112.133211,-0.520136,-0.069331,0.192264
112.233211,0.538920,0.580916,0.145687
112.333211,-0.346656,0.357804,0.534491
112.433211,-0.178673,0.270300,-0.020005
112.533211,0.430342,0.122017,-0.016187
112.633211,-0.092849,-0.476155,0.356888
112.733211,0.315961,0.068262,-0.353070
112.833211,0.152406,-0.771195,-0.121559
112.933211,0.890004,0.432174,-0.301148
113.033211,-0.402243,-0.473559,0.034971
113.133211,0.809983,0.809067,-0.180811
113.233211,0.384376,0.057572,0.049326
113.333211,-0.686898,-0.705529,-0.027183
113.433211,0.432938,0.350321,-0.370021
113.533211,-1.038746,-0.416751,0.078341
113.633211,-0.280226,-0.121559,-0.164165
113.733211,-0.822659,0.011759,0.097277
113.833211,-0.214102,-0.170274,0.236856
113.933211,-0.467298,-0.212117,0.236703
114.033211,-0.049173,0.185239,0.124155
114.133211,0.962695,0.192875,0.179131
114.233211,0.319473,-0.336119,0.236856
114.333211,0.043981,0.441337,-0.240827
114.433211,0.304355,-0.441643,0.090253
114.533211,0.291374,-0.008399,-0.172259
114.633211,0.739889,-0.338562,-0.137135
114.733211,-0.416598,0.227235,0.043676
114.833211,0.031000,-0.503185,-0.389721
114.933211,-0.089947,-0.172106,-0.031153
115.033211,0.198678,0.203870,0.293207
115.133211,0.049020,0.453249,0.260832
115.233211,0.442559,0.266635,0.177909
115.333211,0.098652,-0.146298,0.183101
115.433211,0.205703,0.178062,0.082464
115.533211,0.062154,-0.066124,-0.077425
115.633211,0.211659,-0.050089,-0.118963
115.733211,0.465924,-0.362691,-0.032528
115.833211,0.251974,0.294886,-0.467909
115.933211,-0.285724,-0.344212,-0.057572
116.033211,0.068720,0.187988,-0.403312
116.133211,-0.062306,-0.397509,-0.012828
116.233211,0.136983,0.048562,-0.057114
116.333211,-0.210895,-0.009315,0.094376
116.433211,-0.187683,-0.310921,0.246324
116.533211,0.129194,0.006567,-0.143549
116.633211,-0.218683,-0.017104,0.068109
116.733211,0.009621,-0.219294,-0.121100
116.833211,0.645207,-0.177604,-0.002902
116.933211,0.475850,-0.311838,-0.083533
117.033211,0.121253,-0.335661,0.290916
117.133211,-0.275339,0.153170,0.020311
117.233211,0.049326,-0.277783,0.115450
117.333211,0.568088,0.185239,-0.248768
117.433211,-0.730421,0.282211,0.003054
117.533211,0.346656,-0.078341,0.185087
117.633211,-0.379947,0.306493,0.010995
117.733211,-0.247851,-0.053296,0.080174
117.833211,-0.187225,0.121406,0.184170
117.933211,-0.480126,0.221279,0.125835
118.033211,-0.541822,-0.268162,0.171953
118.133211,0.044745,0.340853,-0.007330
118.233211,-0.688425,0.358567,0.184323
118.333211,0.717287,-0.024434,0.033138
118.433211,-0.057420,0.307103,-0.035276
118.533211,0.155461,0.456150,-0.344976
118.633211,-0.452638,-0.209062,0.186614
118.733211,0.219447,-0.122475,-0.124002
118.833211,-0.383001,-0.425150,0.105218
118.933211,0.043981,-1.132663,0.203565
119.033211,0.035276,0.222959,-0.084450
119.133211,-0.144313,0.283891,-0.012522
119.233211,0.128125,0.062306,-0.087046
119.333211,0.359789,0.332454,-0.149352
119.433211,-0.217767,0.192875,0.034055
119.533211,-0.172106,0.026725,0.213949
119.633211,0.499826,0.554038,-0.187225
119.733211,-0.912759,-0.466076,-0.142938
119.833211,-0.565339,-0.523343,0.095598
119.933211,0.527161,0.818688,-0.175619
120.033211,-0.468367,0.031153,-0.063223
120.133211,0.389721,-0.220516,-0.211506
120.233211,-0.442559,0.161416,-0.425913
120.333211,0.350168,-0.487151,-0.226777
120.433211,-0.656661,-0.108425,0.184323
120.533211,0.052380,0.525634,-0.086129
120.633211,-0.645971,-0.950784,0.477683
120.733211,0.152406,0.446224,0.078647
120.833211,-0.157293,-0.245408,0.614207
120.933211,-1.236813,-0.387583,0.154086
121.033211,1.541168,0.606266,-0.338104
121.133211,-1.113575,0.204481,0.018936
121.233211,-0.171495,-0.182949,-0.330163
121.333211,0.049173,-0.672237,-0.356429
121.433211,0.342533,-0.197609,-0.033138
121.533211,-0.593133,-0.457372,0.271216
121.633211,-0.189363,0.592064,0.294428
121.733211,0.194097,0.389873,0.242354
121.833211,0.382085,-0.053755,0.122322
121.933211,0.064903,0.311838,0.041996
122.033211,0.178826,-0.996597,0.016493
122.133211,0.233955,-0.230442,-0.145534
122.233211,0.467451,0.134692,-0.161722
122.333211,-0.396898,0.105677,0.117588
122.433211,-0.225555,-0.006108,0.276561
122.533211,-0.296108,-0.119421,-0.337188
122.633211,-0.007483,-0.559689,-0.209215
122.733211,0.003818,-0.876719,0.002749
122.833211,-0.206619,0.083533,-0.157446
122.933211,0.163554,0.072385,0.135914
123.033211,0.184934,0.149963,0.322069
123.133211,0.158820,0.868167,-0.052838
123.233211,-0.233955,-0.472643,0.347114
123.333211,-0.034207,-0.012675,0.094987
123.433211,0.452638,0.198220,-0.089336
123.533211,-0.288778,-0.260984,0.083991
123.633211,0.108578,0.461190,-0.016493
123.733211,0.037414,-0.073607,-0.015424
123.833211,0.241132,-0.131943,-0.074829
123.933211,-0.499215,-0.003971,0.177757
124.033211,0.299315,0.294123,0.003665
124.133211,0.093001,-0.195929,0.159278
124.233211,-0.140648,0.053449,-0.032222
124.333211,0.414002,0.055434,0.055129
124.433211,-0.383612,-0.582137,0.306187
124.533211,-0.110411,-0.073913,-0.044134
124.633211,0.183407,0.095445,-0.322986
124.733211,-0.097430,0.171953,-0.078799
124.833211,0.078036,0.478446,-0.012064
124.933211,-0.472032,-0.172717,0.258083
125.033211,-0.675292,0.013744,-0.084755
125.133211,0.716524,-0.402548,-0.049173
125.233211,-0.830905,0.226013,-0.168899
125.333211,0.439657,0.034971,-0.059863
125.433211,0.300842,0.186614,-0.068720
125.533211,-0.434312,-0.228304,0.049784
125.633211,0.291832,-0.065666,-0.263275
125.733211,-0.191959,-0.431869,-0.142327
125.833211,0.196693,-0.189210,0.327414
125.933211,-0.108884,0.351237,0.070095
126.033211,-0.655592,0.379336,0.515708
126.133211,-0.067957,-0.004734,-0.250753
126.233211,0.296566,0.843580,-0.200358
126.333211,0.820521,-1.003927,-0.051464
126.433211,0.275798,0.201732,0.107509
126.533211,-0.412016,0.206772,0.482875
126.633211,-0.052075,0.192875,-0.076203
126.733211,0.100332,-0.138051,-0.266024
126.833211,-0.256403,0.075287,-0.441490
126.933211,-0.280379,0.211964,0.464091
127.033211,-0.365745,0.584428,0.418430
127.133211,-0.406061,0.562132,0.183560
127.233211,-0.073760,0.024434,-0.104913
127.333211,0.119573,-0.210895,-0.373533
127.433211,0.390026,-1.085781,-0.162638
127.533211,0.123086,-0.264191,-0.133012
127.633211,-0.049937,0.080174,0.034971
127.733211,-0.196082,0.197762,0.294428
127.833211,0.069942,0.422706,0.198983
127.933211,-0.108273,-0.567783,0.387277
128.033211,-0.077578,0.004887,0.047341
128.133211,1.123806,0.010995,0.201732
128.233211,-0.443628,-0.037567,0.020616
128.333211,0.882980,0.808304,-0.135608
128.433211,0.029779,-0.089489,0.145229
128.533211,0.087809,0.165998,-0.256861
128.633211,0.336882,0.202038,0.441490
128.733211,-0.185087,0.519678,0.132859
128.833211,0.457830,0.655286,-0.266024
128.933211,0.436145,-0.483944,-0.226166
129.033211,-0.377809,-0.247851,-0.346656
129.133211,-0.370173,0.551901,0.674223
129.233211,-1.086086,0.337493,0.067346
129.333211,1.043938,-0.005803,0.039094
129.433211,0.199289,0.485929,-0.101706
129.533211,-0.108578,-0.268315,0.476308
129.633211,-0.702169,-0.788451,0.301911
129.733211,-0.012370,-0.528688,0.057420
129.833211,0.806624,0.187683,-0.415376
129.933211,-1.173590,0.443170,0.338562
130.033211,0.371548,0.398731,0.435840
130.133211,-1.421289,0.146909,0.698657
130.233211,-0.339020,0.068568,0.365898
130.333211,-0.069942,0.486845,-0.003360
130.433211,0.547319,0.027183,-0.244950
130.533211,0.572211,-0.162944,0.473407
130.633211,1.086545,0.795934,0.259916
130.733211,-0.347267,0.555871,0.448667
130.833211,-0.322375,0.242812,-0.030695
130.933211,0.288167,-0.846329,-0.180811
131.033211,-0.476766,0.159584,-0.406977
131.133211,0.345892,0.330927,0.191195
131.233211,0.036193,0.593438,0.413696
131.333211,-0.040163,1.312405,0.370326
131.433211,-0.069026,0.300537,0.386972
131.533211,0.001985,0.240216,0.186308
131.633211,0.910621,0.651621,0.193333
131.733211,-0.640626,0.426982,-0.179284
131.833211,0.694991,0.905886,-0.949562
131.933211,-0.857324,-0.219905,-0.155766
132.033211,-0.075898,0.880536,0.165387
132.133211,0.749051,0.568393,-0.149047
132.233211,-0.689799,-1.049588,-0.164929
132.333211,-0.551442,-0.020158,0.101095
132.433211,1.367229,3.019265,-0.055129
132.533211,-0.074982,0.483944,0.383001
132.633211,-1.260483,0.392317,0.339020
132.733211,-0.832890,0.140800,0.515860
132.833211,1.442974,0.206619,0.306340
132.933211,0.559078,-0.036651,0.096667
133.033211,-0.291527,0.063375,0.016951
133.133211,0.288014,0.769362,-0.167067
133.233211,0.168747,0.326803,0.009315
133.333211,-0.473559,0.436145,0.045203
133.433211,0.194860,0.387430,0.194402
133.533211,-0.019547,0.362385,0.191042
133.633211,3.080808,0.775776,-0.162944
133.733211,-0.578778,-0.898251,-0.073760
133.833211,0.424997,0.975981,-1.016755
133.933211,-0.268162,-1.103648,-0.203718
134.033211,0.798988,0.169816,-0.220058
134.133211,-0.138510,-0.423012,-0.075745
134.233211,-0.536171,0.045966,0.123238
134.333211,-0.408657,0.473865,0.456608
134.433211,0.058183,0.121559,0.208910
134.533211,0.131943,-0.087809,-0.368952
134.633211,-0.464091,-0.862516,0.137899
134.733211,0.816092,0.266024,-0.194708
134.833211,-0.338104,0.675597,0.376435
134.933211,-1.151142,-0.472948,0.872443
135.033211,0.743248,0.586719,-0.007788
135.133211,-0.448667,-0.428509,0.301300
135.233211,-0.377962,-0.114228,-0.147367
135.333211,-0.324971,0.359331,0.027794
135.433211,-0.689494,-0.067499,0.183101
135.533211,-0.998888,-0.406672,-0.007941
135.633211,0.835486,-0.253196,-0.301759
135.733211,0.555566,0.178215,0.171037
135.833211,-1.621799,0.457983,0.218989
135.933211,0.224486,0.124155,-0.093765
136.033211,-0.906039,-0.092238,0.112701
136.133211,-2.093068,-0.344823,0.436145
136.233211,1.726865,0.702627,-0.133165
136.333211,-3.058970,0.179436,0.708125
136.433211,2.177823,0.280073,-0.009163
136.533211,-5.365224,1.151600,0.021227
136.633211,2.733389,0.337799,0.085366
136.733211,0.866181,-0.093765,0.161264
136.833211,-0.110716,0.125376,-0.195929
136.933211,0.050700,0.013744,-0.277936
137.033211,-0.055893,0.164165,-0.167372
137.133211,-0.329705,-0.038636,-0.056045
137.233211,0.234107,-0.250295,-0.426066
137.333211,0.269689,-0.911995,-0.553733
137.433211,-0.101859,-0.294428,0.089947
137.533211,-0.269689,0.115756,0.273965
137.633211,-0.893364,-0.297941,0.514486
137.733211,0.627646,0.673459,0.219294
137.833211,-0.154086,0.454623,0.188752
137.933211,-0.870610,0.740041,-0.261748
138.033211,0.495397,0.381169,-0.492648
138.133211,-0.013286,-0.250753,-0.190890
138.233211,-0.075440,-0.196235,0.029932
138.333211,-0.290000,-0.071316,-0.027183
138.433211,-0.127209,0.010843,0.133776
138.533211,-0.356582,-0.411558,0.343907
138.633211,-0.333981,-0.211353,0.016340
138.733211,-0.159889,-0.238536,-0.119115
138.833211,0.130721,0.189515,0.162638
138.933211,-4.800343,-1.642263,1.037677
139.033211,4.746436,0.794865,-0.683843
139.133211,0.675902,-1.981741,0.668878
139.233211,-0.961779,1.768861,0.180505
139.333211,-0.164165,0.987740,0.366356
139.433211,0.136830,1.683190,-0.158515
139.533211,-3.244821,-0.280532,0.182185
139.633211,-1.188251,-0.598172,-0.158973
139.733211,3.309723,0.081243,-0.690105
139.833211,-1.706249,-0.462717,0.239910
139.933211,0.824796,0.685829,0.065972
140.033211,0.622759,0.063681,0.356888
140.133211,-0.833501,-0.089642,-0.137746
140.233211,0.393233,-0.069026,-0.323902
140.333211,0.383918,0.098041,0.045508
140.433211,-0.146909,-0.163249,-0.085519
140.533211,-0.408199,-0.253349,-0.298246
140.633211,-0.384223,-0.325887,-0.190584
140.733211,0.485013,-0.155155,-0.098041
140.833211,-1.178019,-1.198941,-0.104302
140.933211,-0.259305,-1.278809,0.120948
141.033211,-1.487108,-0.014813,0.006261
141.133211,-1.287819,0.218836,-0.088726
141.233211,3.519549,0.467756,0.062001
141.333211,0.764933,-0.567324,0.023059
141.433211,-0.624439,-0.295650,-0.402243
141.533211,0.343754,-0.128278,0.118504
141.633211,-0.672237,-0.144007,0.442101
141.733211,-0.603212,-0.278088,0.368494
141.833211,1.114644,1.212074,0.474323
141.933211,-1.094333,0.400563,0.487762
142.033211,0.202496,0.022754,-0.011759
142.133211,0.172106,0.243728,0.176840
142.233211,-0.296261,0.503338,-0.009468
142.333211,0.441795,-0.060932,-0.358720
142.433211,0.274270,-0.024281,-0.090253
142.533211,-0.021227,0.089184,0.177451
142.633211,-0.056809,-0.048410,-0.046577
142.733211,0.682164,0.202954,-0.263733
142.833211,-0.822353,-0.149199,-0.108578
142.933211,0.478141,-0.181116,-0.292749
143.033211,0.164776,-0.095445,-0.117435
143.133211,0.577403,0.269384,0.244797
143.233211,0.633754,-0.167678,0.175466
143.333211,-0.495855,-0.152254,-0.237314
143.433211,-0.055587,-0.390790,-0.264344
143.533211,-0.500284,-0.083991,0.210284
143.633211,0.494023,0.166456,0.214407
143.733211,0.056962,-0.295497,-0.113007
143.833211,-0.443322,0.579847,-0.565034
143.933211,0.445308,-0.759283,0.008399
144.033211,0.432174,-0.086435,0.360705
144.133211,-0.201885,0.341769,0.545945
144.233211,-0.386055,0.165845,0.249837
144.333211,-0.592369,0.631158,0.104760
144.433211,-1.195886,-0.230137,0.497841
144.533211,1.128082,0.817772,-0.392011
144.633211,-0.132248,0.207383,-0.119268
144.733211,0.690716,0.050089,0.075898
144.833211,-0.158057,1.218029,-0.007483
144.933211,-0.683843,0.279921,0.052380
145.033211,-0.105524,-0.397203,0.182491
145.133211,-0.124155,0.907261,-0.101401
145.233211,1.338214,-0.246782,-0.043676
145.333211,0.598783,-0.722632,-0.191959
145.433211,1.386318,0.242201,-0.435229
145.533211,-0.203259,-0.698351,-0.367883
145.633211,-0.300384,0.292901,-0.568393
145.733211,0.033597,-0.010384,0.014049
145.833211,0.752106,-1.646844,0.020616
145.933211,-0.001985,0.325123,-0.304660
146.033211,-0.282670,-1.143811,-0.021227
146.133211,0.310310,0.131943,0.100637
146.233211,-0.320848,-0.841442,0.633907
146.333211,-0.026266,0.459052,-0.090558
146.433211,-0.387735,0.114076,0.416751
146.533211,-0.297788,0.273354,0.155766
146.633211,-0.547014,-0.995223,0.344365
146.733211,-0.162791,0.483791,0.049173
146.833211,-0.273201,-0.147672,0.125071
146.933211,-0.534339,-0.259763,0.381627
147.033211,1.344933,0.771042,-0.284349
147.133211,-1.227039,-0.916882,0.452485
147.233211,1.948756,0.349252,-0.068568
147.333211,0.010690,1.547887,-0.088726
147.433211,-0.895197,-0.747982,0.246477
147.533211,0.468978,-0.104608,-0.016798
147.633211,-0.542432,-0.080937,0.090405
147.733211,-1.765043,-0.093460,0.304202
147.833211,0.897335,0.053755,0.128278
147.933211,-0.941774,1.545749,-0.344518
148.033211,0.825255,-0.853354,-0.137746
148.133211,0.278699,-0.185850,-0.309089
148.233211,0.054824,-0.431564,-0.129041
148.333211,-0.806624,2.916643,-0.391859
148.433211,-2.714453,-0.038331,0.126293
148.533211,-0.623675,1.485886,-0.277019
148.633211,-0.074371,0.978425,0.414002
148.733211,-1.291331,-0.475239,-0.142022
148.833211,0.963612,0.559383,-0.342074
148.933211,-0.527314,0.503949,0.026725
149.033211,-1.011716,1.285833,-0.100790
149.133211,2.016712,-0.077119,0.292443
149.233211,0.001069,-0.307103,-0.133623
149.333211,1.635696,0.096972,-0.080174
149.433211,-0.797156,-0.643986,0.380405
149.533211,0.734238,0.138968,-0.314434
149.633211,1.058140,0.646735,-0.146756
149.733211,0.105677,-0.062765,0.047188
149.833211,1.301563,0.392775,-0.538462
149.933211,0.888477,-0.099568,-0.350626
150.033211,-0.478293,0.035582,-0.189363
150.133211,0.846176,-0.065819,0.009621
150.233211,0.411711,0.061237,0.080632
150.333211,0.360553,0.196082,-0.082617
150.433211,-1.248266,0.452485,0.043981
150.533211,0.313823,-0.255181,-0.086129
150.633211,-0.859004,-0.718204,-0.160806
150.733211,-0.362232,-0.613443,-0.411711
150.833211,-0.589468,-0.567324,-0.017867
150.933211,0.038483,-0.250600,-0.513417
151.033211,-0.070553,-0.621995,-0.199442
151.133211,0.942537,-0.698504,-0.075898
151.233211,-0.885118,-0.060474,-0.181727
151.333211,-0.206008,-1.135107,0.324513
151.433211,-0.157446,-0.366661,0.346503
151.533211,-0.022296,-1.032943,0.230748
151.633211,-0.027183,-0.644138,-0.129347
151.733211,0.637572,0.174855,0.186156
151.833211,0.829072,-0.561063,0.201427
151.933211,-0.602295,-0.016035,0.182032
152.033211,-0.168899,0.403159,0.255792
152.133211,-0.370632,0.844802,-0.001374
152.233211,0.687967,0.672696,-0.304813
152.333211,0.683691,-0.166761,-0.470352
152.433211,0.049020,-0.152559,-0.299468
152.533211,0.525023,-0.415223,0.128583
152.633211,-1.381584,-0.853354,0.303286
152.733211,0.434923,-0.096056,0.053602
152.833211,-2.878160,0.603059,0.051922
152.933211,0.062001,0.189363,-0.105218
153.033211,0.064903,-0.048562,0.372159
153.133211,0.252738,-0.683996,0.103844
153.233211,-0.433549,-0.028252,0.148283
153.333211,0.078494,-0.072844,-0.040010
153.433211,-0.193639,0.427898,0.192111
153.533211,0.415529,0.823880,-0.245561
153.633211,-0.615429,-0.836250,-0.023059
153.733211,0.529146,0.165998,-0.349405
153.833211,-0.385445,-0.074829,-0.111938
153.933211,0.603670,-0.322986,-0.137899
154.033211,0.230595,0.646276,-0.039400
154.133211,-0.959336,1.019046,0.094376
154.233211,-0.390942,-0.057420,0.044897
154.333211,-0.822811,0.707056,0.274576
154.433211,0.512501,0.913369,-0.045966
154.533211,-0.764933,-0.996750,0.455081
154.633211,1.339588,1.129915,-0.578167
154.733211,-0.797156,0.621384,-0.239147
154.833211,-0.173481,-0.822659,-0.362080
154.933211,0.507156,2.651535,-0.799294
155.033211,-0.959030,-0.605350,0.165845
155.133211,1.813758,-0.413238,0.137135
155.233211,-0.592216,-0.175313,0.368188
155.333211,0.490510,0.735002,0.250142
155.433211,-1.222916,0.318404,0.376282
155.533211,0.182796,0.396745,-0.309394
155.633211,0.773791,-0.229679,-0.475392
155.733211,2.092916,0.287251,-0.656203
155.833211,-0.205397,-0.553886,0.207383
155.933211,-0.595729,-0.429120,0.300842
156.033211,-0.280379,-0.381474,0.355208
156.133211,-0.845107,0.851368,0.176688
156.233211,0.017409,-1.065165,0.370326
156.333211,0.211506,0.591300,-0.192264
156.433211,-0.230900,0.290916,-0.624286
156.533211,0.800057,-0.932458,0.066582
156.633211,-0.631769,1.122585,-0.375976
156.733211,0.640779,0.069637,0.009010
156.833211,1.499935,-0.833043,0.251974
156.933211,-0.979952,1.267508,-0.067193
157.033211,0.218836,-0.125835,0.019700
157.133211,2.630919,-0.319320,-0.479668
157.233211,-3.023389,-0.817314,0.607946
157.333211,1.896528,0.390331,-0.512501
157.433211,-1.774053,-0.095292,-0.067499
157.533211,2.145448,-0.489441,-0.338409
157.633211,-1.104870,-0.988045,0.701558
157.733211,2.325343,0.241590,-0.163402
157.833211,-1.463590,-0.586108,-0.214407
157.933211,0.656355,0.403006,-0.113312
158.033211,-1.061805,-0.620163,0.206772
158.133211,-0.202190,-0.725992,-0.023212
158.233211,0.745539,-1.096318,-0.129805
158.333211,0.300842,1.528340,-0.495855
158.433211,-1.043022,-1.068372,0.419347
158.533211,0.260832,-0.370021,0.140037
158.633211,0.200663,-0.228304,-0.329552
158.733211,0.098499,0.297941,-0.136830
158.833211,-0.123391,-0.428662,-0.073760
158.933211,0.333675,0.228304,-0.491427
159.033211,-1.032179,-0.522274,0.148130
159.133211,-0.488983,0.018478,0.468214
159.233211,0.077578,0.388804,0.152712
159.333211,-0.055129,0.848620,0.244033
159.433211,-0.878398,0.711484,0.129958
159.533211,1.389525,-1.131289,0.210590
159.633211,0.324513,1.068983,-0.115297
159.733211,0.092085,0.218072,-0.104913
159.833211,-0.625660,-0.323596,0.288320
159.933211,-0.800668,0.589468,-0.246477
160.033211,1.158166,0.549915,0.150116
160.133211,0.920852,1.170994,-0.196387
160.233211,-0.264344,0.298399,-0.167525
160.333211,-1.490315,0.317641,-0.635128
160.433211,0.803264,-1.126250,0.043676
160.533211,0.388957,-0.530368,0.172106
160.633211,-1.597671,-0.275798,0.595882
160.733211,0.367577,-0.312296,-0.083381
160.833211,-0.506698,-1.023322,0.346198
160.933211,-0.606571,0.541822,-0.408504
161.033211,0.908024,-0.540753,0.037262
161.133211,-0.582443,-0.105524,0.538156
161.233211,-0.252280,0.009010,-0.073760
161.333211,-0.453860,-0.146909,0.313670
161.433211,0.168594,1.154501,-0.080326
161.533211,-0.210742,-0.865571,-0.278699
161.633211,-0.510821,-0.843580,-0.250142
161.733211,-0.022907,-0.135761,-0.457372
161.833211,1.013243,-0.378573,-0.196540
161.933211,-0.384986,-0.003512,-0.020005
162.033211,-1.317139,-0.030390,0.113618
162.133211,0.260221,-0.192875,0.210590
162.233211,1.333938,-0.994307,-0.092238
162.333211,-1.179241,0.020463,-0.016340
162.433211,0.184476,-1.099983,0.188446
162.533211,0.364065,-0.344976,0.817772
162.633211,-0.403312,0.028099,0.222654
162.733211,0.290916,1.057835,-0.613291
162.833211,1.260942,-0.146145,0.077730
162.933211,-1.531241,-0.244033,-0.279921
163.033211,3.053167,-0.889852,0.311685
163.133211,-0.954907,3.466558,-0.717898
163.233211,0.860073,-0.598019,-0.084144
163.333211,-0.484402,1.703195,-0.286335
163.433211,1.679219,-0.331385,0.076814
163.533211,-0.980104,0.284044,0.496466
163.633211,1.298356,0.226166,0.235176
163.733211,-0.000153,-0.554344,-0.007025
163.833211,1.956238,1.724422,-0.588246
163.933211,-1.640888,-0.040927,0.328636
164.033211,0.384986,-0.078036,0.426677
164.133211,1.012327,-0.158820,0.069331
164.233211,0.818688,-0.094987,0.050089
164.333211,0.742027,0.320848,-0.019547
164.433211,0.317030,0.722480,-0.119421
164.533211,-1.639209,-0.140495,-0.228915
164.633211,2.113990,0.013744,-0.205245
164.733211,0.758672,0.648567,0.068262
164.833211,-1.152363,-0.266482,0.021838
164.933211,0.232427,0.816092,-0.196540
165.033211,0.584581,-0.893517,-0.338104
165.133211,0.162333,-0.101859,0.237314
165.233211,-0.769668,-0.450042,0.227693
165.333211,0.598325,-0.210590,-0.411864
165.433211,0.364218,-0.124918,-0.406213
165.533211,-0.696824,-0.065819,-0.001374
165.633211,0.958267,0.074065,-0.319473
165.733211,0.856255,-1.249794,0.412475
165.833211,-0.040010,-0.452027,0.333981
165.933211,-0.296566,0.297330,0.386972
166.033211,0.520289,-0.898556,0.023518
166.133211,1.211463,-0.307562,-0.397051
166.233211,-0.061390,-0.500131,0.223876
166.333211,0.354291,0.328636,-0.089184
166.433211,-0.799904,-0.673001,0.540447
166.533211,1.279725,0.434312,-0.158362
166.633211,-0.555413,0.157446,0.105677
166.733211,-0.696060,-0.294123,-0.104149
166.833211,-0.147825,-0.537240,0.068262
166.933211,-0.875955,-0.259610,-0.207688
167.033211,0.309547,0.112854,-0.383154
167.133211,0.417361,-0.187988,0.130569
167.233211,0.093154,1.646844,0.033444
167.333211,-0.111938,-0.182643,0.121559
167.433211,-0.650400,-0.039400,-0.142633
167.533211,-0.234565,-0.379336,-0.059558
167.633211,1.248266,1.077535,0.430647
167.733211,-1.977618,0.455081,0.183407
167.833211,1.530783,0.903290,-0.459815
167.933211,-0.224792,-0.287862,0.358720
168.033211,0.371701,1.024238,-0.090558
168.133211,0.087504,0.110869,-0.013897
168.233211,1.436560,-0.454012,-0.044745
168.333211,-1.293164,-0.958419,-0.005650
168.433211,1.428772,-1.008203,-0.205092
168.533211,-0.074982,-0.161416,0.146145
168.633211,1.166566,-1.405560,-0.063681
168.733211,-0.109036,-0.762490,0.381321
168.833211,-0.276408,1.012479,0.009468
168.933211,1.416555,0.020311,0.273812
169.033211,-0.312143,-0.503491,0.131638
169.133211,3.223746,0.078647,-0.525939
169.233211,-1.404796,-0.282670,0.126293
169.333211,0.608557,1.102732,-0.567783
169.433211,-1.348293,-0.671016,-0.000153
169.533211,0.789215,-0.340853,-0.055434
169.633211,1.089141,0.009010,0.127667
169.733211,-2.009229,0.656508,0.272132
169.833211,0.222196,-0.557245,0.275187
169.933211,-0.471269,0.337951,0.252433
170.033211,-1.413348,-0.286029,0.264955
170.133211,0.468825,0.336119,0.037262
170.233211,-0.034360,0.640168,-0.256861
170.333211,-1.064554,-0.485165,0.270605
170.433211,1.519483,-0.421943,-0.228762
170.533211,-0.925892,0.849994,-0.176229
170.633211,-0.418889,-0.044286,-0.075745
170.733211,0.889394,0.005498,-0.174702
170.833211,-0.369563,-0.690257,0.228151
170.933211,-0.830447,0.070706,0.162638
171.033211,1.883700,-0.656814,0.339478
171.133211,-1.031874,-0.280073,-0.077119
171.233211,0.521816,-0.747219,0.399494
171.333211,1.081047,0.895655,-0.319320
171.433211,-0.704001,-0.818077,0.137593
171.533211,2.342141,2.118266,-0.704001
171.633211,-1.882631,-2.308239,0.860531
171.733211,1.852700,-0.897335,-0.423317
171.833211,1.504211,1.615691,-0.273965
171.933211,-0.018631,-0.330621,-0.048562
172.033211,0.334592,-0.519373,0.269994
172.133211,1.276824,-0.005650,-0.188752
172.233211,-0.521816,-0.385750,0.062306
172.333211,0.817466,-0.182796,0.046577
172.433211,-1.099525,-0.152559,0.159584
172.533211,2.726822,0.049020,-0.433243
172.633211,-1.838956,-0.413544,0.691326
172.733211,1.299578,1.000262,-0.651927
172.833211,-1.545138,-0.950631,0.389873
172.933211,1.762905,1.291178,-0.811969
173.033211,-1.165038,0.077272,-0.187988
173.133211,0.816245,0.693006,-0.603212
173.233211,-0.073149,-0.283280,0.068720
173.333211,0.524565,-0.230289,0.067346
173.433211,-1.500546,-0.109953,0.321764
173.533211,1.936233,0.726908,-0.212728
173.633211,-2.530740,-1.291637,0.560300
173.733211,-0.015577,0.206008,-0.068415
173.833211,1.818950,-0.156071,0.161569
173.933211,-0.467298,0.817008,0.158668
174.033211,0.991100,-1.184433,0.011606
174.133211,1.515665,0.749815,-0.566255
174.233211,-0.751648,0.024587,0.079868
174.333211,0.086282,0.306951,0.310769
174.433211,0.667045,0.126293,0.121406
174.533211,-1.794822,0.090711,0.127056
174.633211,0.473712,0.085060,0.142175
174.733211,1.079673,-0.039400,-0.008246
174.833211,-1.278656,0.068873,-0.436145
174.933211,0.520289,-0.238230,-0.288473
175.033211,-0.203718,-1.132205,-0.041690
175.133211,0.086588,0.039552,0.130874
175.233211,0.967277,0.053449,-0.203565
175.333211,-0.470658,-0.935207,0.328025
175.433211,0.613138,0.112854,-0.131638
175.533211,-0.589315,-0.287709,0.126445
175.633211,-0.540905,0.091016,0.201121
175.733211,2.230509,0.156682,-0.150727
175.833211,-0.723243,-0.271522,0.292443
175.933211,0.908788,-0.736835,-0.061848
176.033211,-0.774096,-0.195471,0.379642
176.133211,0.342838,-0.499215,0.301453
176.233211,-1.191610,-0.122322,-0.097430
176.333211,-0.039094,-0.393691,0.096667
176.433211,-1.187640,-0.415376,0.636656
176.533211,-0.010537,0.221279,0.284044
176.633211,-0.067957,0.087962,0.071011
176.733211,0.651316,1.044243,-0.034360
176.833211,-0.920089,0.435534,-0.097583
176.933211,0.178367,-0.465313,-0.145382
177.033211,-0.936887,-0.339784,0.072691
177.133211,0.150574,-0.045050,-0.048868
177.233211,-0.367577,0.237620,-0.026114
177.333211,-1.014465,-0.282670,0.097583
177.433211,1.066234,-0.827393,0.219600
177.533211,-0.984228,0.671168,0.024281
177.633211,-1.169467,-0.874275,0.641848
177.733211,0.381474,0.348336,-0.020922
177.833211,-0.690716,1.103801,0.047646
177.933211,0.796392,-0.663838,-0.123391
178.033211,1.510320,0.812580,-0.339173
178.133211,-1.864611,-0.467604,-0.182796
178.233211,5.123176,-0.258541,-0.269231
178.333211,-1.973953,0.114076,0.177451
178.433211,2.419871,-0.695450,0.056045
178.533211,0.269384,-0.216698,0.015729
178.633211,0.862669,0.019853,0.099568
178.733211,-0.273201,-0.965291,0.491121
178.833211,1.245365,-0.505171,-0.030390
178.933211,0.279004,0.584581,-0.539684
179.033211,-1.199704,-0.677888,0.010843
179.133211,0.861753,3.171672,-0.789978
179.233211,-3.067369,-0.058183,0.154392
179.333211,1.135260,-0.759283,-0.048410
179.433211,-0.779594,0.654676,-0.206619
179.533211,1.012479,-0.770431,0.367425
179.633211,-0.642917,-0.254112,0.159889
179.733211,0.128736,0.089795,0.068873
179.833211,0.195624,0.122475,0.313365
179.933211,-0.111480,-0.074371,-0.091474
180.033211,1.203827,-0.360094,0.187225
180.133211,0.150879,-0.267093,-0.039094
180.233211,0.979494,0.651163,-0.401327
180.333211,-0.335966,0.187530,0.244950
180.433211,0.715455,0.090864,-0.022449
180.533211,-0.693159,-0.355360,-0.051617
180.633211,1.005607,-0.107356,-0.093001
180.733211,-0.802348,0.229679,0.165692
180.833211,-0.272591,-1.208561,0.027946
180.933211,-0.184170,-0.195166,-0.329705
181.033211,0.589773,-0.224792,0.166914
181.133211,-2.054432,0.170885,0.095903
181.233211,0.899931,0.703391,-0.212422
181.333211,0.782648,-0.148283,0.158209
181.433211,-0.680484,0.448515,-0.194860
181.533211,0.113923,0.226013,-0.284502
181.633211,-0.706292,0.386361,-0.468978
181.733211,0.394607,-0.293054,-0.227693
181.833211,-0.233649,-0.510516,0.001833
181.933211,0.129347,0.388957,0.268467
182.033211,-0.546708,0.584428,0.342991
182.133211,0.169968,-0.200358,0.009926
182.233211,0.140648,-0.044592,-0.048104
182.333211,-0.382696,0.195777,-0.278852
182.433211,0.458594,-0.651621,0.001069
182.533211,-1.243838,-0.219752,0.126445
182.633211,0.135608,0.453401,0.138204
182.733211,-0.045661,-0.089031,0.068415
182.833211,0.179284,-0.066888,-0.248768
182.933211,-0.050395,0.706903,-0.525023
183.033211,-0.348336,-0.149810,-0.018478
183.133211,-0.098805,-0.189210,0.113923
183.233211,0.525787,-0.696671,0.072385
183.333211,-0.253349,1.232079,-0.246782
183.433211,-0.229984,-0.136983,0.315197
183.533211,0.420568,0.514639,0.082312
183.633211,-0.191806,-0.009468,0.103233
183.733211,0.218989,-0.056351,0.016798
183.833211,0.367883,-0.309089,-0.012522
183.933211,0.042148,-0.097736,-0.346656
184.033211,-0.296261,-0.269231,-0.026877
184.133211,0.103233,-1.124570,0.576029
184.233211,-0.436909,-0.172412,-0.110411
184.333211,-0.026877,-0.290458,0.035276
184.433211,0.156682,-0.011912,0.306951
184.533211,0.160195,0.574044,0.028404
184.633211,0.157140,0.489594,0.126445
184.733211,0.709041,0.075745,0.018478
184.833211,-0.332148,-0.063528,-0.145534
184.933211,-0.990336,0.415529,-0.043981
185.033211,0.290916,-0.008399,0.251364
185.133211,0.036498,0.281448,-0.234565
185.233211,-0.322680,0.052380,-0.320389
185.333211,-0.319931,-0.486234,-0.047341
185.433211,0.468825,-0.166456,-0.091169
185.533211,0.130263,0.397662,-0.043217
185.633211,-0.211353,0.084755,0.397967
185.733211,-0.195471,0.521969,0.371548
185.833211,0.248157,0.725687,0.017715
185.933211,0.011759,0.227693,-0.373533
186.033211,-0.274423,-0.337035,-0.159889
186.133211,-0.147520,0.319473,-0.230442
186.233211,0.370784,0.428051,-0.227541
186.333211,0.120948,-0.282059,-0.240063
186.433211,-0.225708,-0.341616,-0.149047
186.533211,0.423470,0.019089,-0.130263
186.633211,-0.637572,-0.493106,0.253502
186.733211,0.284808,-0.089947,0.154086
186.833211,-0.371242,-0.148589,0.056045
186.933211,0.227693,0.062765,0.076661
187.033211,-0.492037,-0.065055,0.442101
187.133211,-0.242048,0.066430,0.125071
187.233211,0.462259,0.217767,-0.391553
187.333211,-0.562438,0.286335,0.234871
187.433211,0.555566,1.110826,-0.024587
187.533211,-0.091322,-0.417209,0.161722
187.633211,-0.373839,0.695297,-0.567324
187.733211,-0.209979,-0.424692,-0.044897
187.833211,0.764475,0.052686,0.111174
187.933211,-0.331537,0.148283,0.484249
188.033211,0.140342,0.742179,0.157904
188.133211,0.275034,-0.095445,0.016493
188.233211,0.342380,-0.061390,-0.156071
188.333211,-0.369410,0.458899,-0.342074
188.433211,0.418583,0.196235,-0.350168
188.533211,0.745234,-0.118963,0.140953
188.633211,-0.510974,0.030542,0.167525
188.733211,0.763712,0.239147,-0.311379
188.833211,0.304660,-0.025350,-0.141106
188.933211,-0.379336,-0.105218,0.028863
189.033211,-0.617567,-0.047952,0.024587
189.133211,-0.253349,-0.644749,0.201274
189.233211,0.186156,-0.175466,0.028710
189.333211,-0.138968,-0.251669,0.063681
189.433211,-0.590078,-0.155919,0.064903
189.533211,1.314391,0.502269,-0.183712
189.633211,-0.944064,0.133317,0.535102
189.733211,0.168441,0.165081,-0.110258
189.833211,0.169510,-0.245713,0.005956
189.933211,-0.680942,0.126598,-0.199594
190.033211,-0.300537,-0.161416,-0.151337
190.133211,0.323902,0.345740,-0.183101
190.233211,-0.282211,-0.215629,-0.066735
190.333211,0.032986,-0.474476,0.031000
190.433211,0.036498,0.070400,-0.025503
190.533211,0.293970,-0.075745,0.014813
190.633211,-0.696519,-0.313517,0.401327
190.733211,-0.291985,0.576640,-0.094681
190.833211,-0.000305,-0.307103,-0.162333
190.933211,-0.318862,-0.024587,-0.283128
191.033211,0.234413,0.389110,-0.002291
191.133211,-0.083991,-0.279921,0.177146
191.233211,-0.114228,-0.077578,0.371701
191.333211,1.380668,0.125682,-0.105371
191.433211,0.268926,-0.508836,-0.261137
191.533211,0.065819,0.038636,-0.100943
191.633211,-0.444391,0.524260,-0.082923
191.733211,0.442864,-0.377656,-0.045814
191.833211,-0.250447,0.348641,-0.257930
191.933211,0.357956,-0.150879,-0.189974
192.033211,0.030848,-0.340853,-0.103997
192.133211,0.322680,-0.344671,-0.185087
192.233211,-0.506240,-0.203870,0.328330
192.333211,0.174702,0.884507,0.207230
192.433211,-0.010537,-0.028710,0.383612
192.533211,-0.054213,0.294734,-0.495092
192.633211,0.165540,-0.433091,-0.045508
192.733211,-0.278394,0.076203,-0.062765
192.833211,-0.698962,-0.259305,0.293359
192.933211,1.706249,0.292749,-0.161416
193.033211,-0.684454,0.090100,0.248615
193.133211,-0.480737,0.174397,0.307409
193.233211,-1.175728,0.091322,0.173328
193.333211,1.631268,1.727781,-0.655439
193.433211,-0.850299,-1.543916,0.201274
193.533211,0.492343,0.672696,0.360094
193.633211,-1.928445,0.648109,-0.190584
193.733211,0.309394,-0.154392,0.054365
193.833211,0.511737,0.227388,0.036498
193.933211,0.641695,0.218989,-0.117741
194.033211,-0.288778,-0.206466,0.080021
194.133211,0.068262,-0.131485,0.074982
194.233211,-0.038942,0.423928,0.103844
194.333211,-0.093307,-0.159584,-0.014660
194.433211,-0.203412,0.246477,-0.120642
194.533211,-0.066277,-0.012675,0.007636
194.633211,-0.064139,0.063834,0.160500
194.733211,0.895808,-0.220669,-0.175160
194.833211,-0.651621,-1.147782,-0.058489
194.933211,0.212269,0.650552,-0.065361
195.033211,-0.097430,0.531284,0.089947
195.133211,-0.123391,0.507461,-0.187988
195.233211,0.050548,-0.091627,-0.083075
195.333211,-0.963001,0.959488,-0.143855
195.433211,-0.191348,-0.015729,-0.258541
195.533211,-0.782648,-0.192111,0.174855
195.633211,0.445460,-0.461342,-0.041538
195.733211,-0.120948,-0.304660,-0.182643
195.833211,0.165387,-0.158362,0.083839
195.933211,-0.687814,-0.379336,0.201580
196.033211,0.185392,-0.124002,-0.113618
196.133211,-0.555718,-0.251822,0.331690
196.233211,0.411406,0.128736,-0.231969
196.333211,-0.445002,-0.163554,0.042454
196.433211,0.560300,0.040469,-0.304965
196.533211,-0.578778,-1.162290,0.124918
196.633211,0.760963,-0.051617,0.171495
196.733211,-0.383918,0.376587,0.098041
196.833211,-0.239758,0.101401,0.079410
196.933211,0.570684,0.365592,-0.161111
197.033211,-0.112090,0.581832,-0.224028
197.133211,-0.456303,-0.549457,-0.023518
197.233211,-0.091016,0.348336,-0.373991
197.333211,-0.431258,0.054824,0.102011
197.433211,-0.031459,0.082159,0.087046
197.533211,-0.202496,0.044286,0.019089
197.633211,0.366814,-0.323291,0.094376
197.733211,0.095598,-0.077730,0.225555
197.833211,0.681400,1.034623,0.067193
197.933211,0.763254,-0.033444,0.085977
198.033211,-0.584886,-0.011912,0.229679
198.133211,0.805860,-0.086588,-0.101095
198.233211,1.220320,-0.578014,0.033291
198.333211,0.192722,0.160042,-0.360553
198.433211,0.483333,-0.350779,-0.708125
198.533211,0.081090,-0.622453,0.274881
198.633211,0.891837,1.026834,-0.048562
198.733211,-0.092543,-0.711942,0.525481
198.833211,0.954143,0.516471,-0.263122
198.933211,-1.167787,0.767682,0.257014
199.033211,-0.488067,0.245255,0.002596
199.133211,-0.250753,-0.664296,0.080785
199.233211,0.062306,0.088115,-0.384681
199.333211,-0.481500,-0.707972,0.071316
199.433211,0.258236,-0.235787,-0.058489
199.533211,-0.036956,0.215629,-0.181880
199.633211,0.653148,0.156377,-0.129347
199.733211,-0.523191,-0.106440,0.111632
199.833211,0.200969,-0.014508,0.100484
199.933211,0.725228,-0.705529,0.329094
200.033211,0.377962,0.251211,-0.026114
200.133211,0.157904,-0.348336,-0.055740
200.233211,-0.467145,-0.430495,0.390637
200.333211,1.391815,0.945592,0.023212
200.433211,-0.240827,0.236551,0.128125
200.533211,0.825560,-0.786313,-0.330163
200.633211,0.061696,0.126140,-0.159431
200.733211,-0.322833,0.012064,0.237467
200.833211,-0.603212,-0.074982,0.230748
200.933211,0.353528,0.457677,0.269231
201.033211,0.546403,0.320389,0.035582
201.133211,0.011606,0.009774,-0.036193
201.233211,0.774096,1.471226,-0.731184
201.333211,-0.016187,-0.541822,-0.237161
201.433211,0.086129,-0.372770,-0.359025
201.533211,-0.078188,-0.076050,0.134234
201.633211,0.534186,-0.703085,0.386819
201.733211,0.007177,0.054671,0.137135
201.833211,0.680789,-0.139120,-0.227693
201.933211,-0.880384,-0.040010,0.175008
202.033211,-0.161264,-0.166761,-0.245255
202.133211,-0.079716,-0.410642,-0.073302
202.233211,0.130416,-0.213186,-0.215324
202.333211,-0.133165,0.065055,-0.188294
202.433211,0.192722,-0.045050,0.056656
202.533211,0.202190,0.116061,-0.242812
202.633211,0.003971,-0.020005,-0.111021
202.733211,0.139426,0.001985,0.024434
202.833211,-0.614512,-0.546097,0.137593
202.933211,0.274729,-0.092391,-0.060321
203.033211,-0.358109,0.320848,0.196846
203.133211,-0.182185,-0.358262,0.488831
203.233211,-0.570837,0.127209,0.091016
203.333211,0.971094,-0.456914,0.213033
203.433211,-0.530674,-0.039247,0.050395
203.533211,-0.201121,0.092696,0.040774
203.633211,0.152101,-0.183254,-0.093307
203.733211,0.511279,0.167830,-0.434618
203.833211,-0.102011,-0.615123,-0.098805
203.933211,-0.338562,-0.250295,-0.049784
204.033211,0.501964,0.005498,-0.016493
204.133211,-0.801890,-0.153170,0.207688
204.233211,-0.129041,-0.001222,0.142786
204.333211,-0.436756,0.130721,0.252585
204.433211,1.026987,0.237772,0.099568
204.533211,-0.319015,0.258999,-0.141717
204.633211,0.401785,-0.129500,-0.177298
204.733211,-0.158668,-0.076356,0.020769
204.833211,-0.374144,0.018936,0.249837
204.933211,0.282059,0.175313,0.023976
205.033211,0.052533,-0.383612,0.188141
205.133211,0.216545,0.273354,-0.020311
205.233211,0.071469,0.043065,-0.067499
205.333211,-0.197609,-0.028404,0.061848
205.433211,0.626271,0.494634,-0.270453
205.533211,0.070095,-0.226624,0.089795
205.633211,0.320848,0.088115,-0.184781
205.733211,0.056809,0.051311,-0.084908
205.833211,-0.918714,-0.404992,-0.304202
205.933211,-0.249378,0.111174,-0.191959
206.033211,-0.171801,-0.060627,0.047188
206.133211,-0.764475,-0.590995,0.198831
206.233211,1.020726,0.043370,-0.167830
206.333211,-1.402658,-0.258694,0.231358
206.433211,0.938109,-0.002749,0.235940
206.533211,-0.480889,0.233496,0.146603
206.633211,0.388957,-0.108578,-0.068568
206.733211,0.614512,0.889699,-0.233649
206.833211,-0.427593,-0.513264,0.234260
206.933211,0.066277,-0.000916,-0.326956
207.033211,0.300384,-0.407130,-0.258694
207.133211,0.234718,-0.413849,-0.089642
207.233211,0.295345,0.786619,-0.149963
207.333211,0.048715,-0.412780,0.322375
207.433211,-0.319626,0.009163,0.117588
207.533211,0.337340,0.175313,0.258236
207.633211,-0.130721,-0.102928,0.298552
207.733211,0.235482,0.358109,-0.025350
207.833211,0.116672,0.017256,0.138510
207.933211,-0.259916,-0.860989,-0.187225
208.033211,-0.677888,-0.150268,-0.049020
208.133211,0.094529,-0.395829,0.029321
208.233211,0.640015,0.295039,-0.296108
208.333211,0.860989,0.502727,-0.285724
208.433211,-0.665976,0.153934,0.200358
208.533211,-0.658188,-0.500437,0.274270
208.633211,-0.142938,0.692548,-0.574655
208.733211,-0.488678,-0.185087,-0.428357
208.833211,0.336271,-0.504865,-0.257014
208.933211,-0.486234,0.090253,0.184018
209.033211,-1.293011,0.365439,0.544418
209.133211,0.832432,0.122322,-0.092543
209.233211,0.040774,-0.174550,-0.469589
209.333211,-0.267704,-0.590995,-0.264497
209.433211,0.027030,-1.087003,0.037720
209.533211,0.508683,0.041690,-0.069942
209.633211,-1.340199,-0.260068,0.532048
209.733211,0.283280,0.359636,-0.063375
209.833211,-0.733628,-0.104149,-0.002596
209.933211,-0.113923,1.319125,-0.697893
210.033211,0.219752,-0.570226,-0.622912
210.133211,0.554802,-1.013090,-0.160653
210.233211,0.166150,0.146756,-0.346503
210.333211,-0.527161,-1.331342,0.032528
210.433211,-0.166609,-0.182796,-0.070095
210.533211,-0.806929,-0.914438,-0.076356
210.633211,0.954449,-0.103997,-0.227235
210.733211,-0.627951,-0.200358,0.240368
210.833211,-0.464091,0.279463,0.304813
210.933211,0.364523,-0.073607,0.055434
211.033211,0.401174,-0.050395,-0.601685
211.133211,-0.119573,-0.298093,-0.312601
211.233211,0.340089,0.084908,-0.404381
211.333211,0.075745,-0.552053,-0.526550
211.433211,0.083686,-0.930320,-0.142786
211.533211,-0.279615,-0.574196,0.111938
211.633211,0.076203,-0.553580,0.240216
211.733211,0.660937,0.635739,-0.203870
211.833211,-0.383001,-0.381169,-0.122169
211.933211,0.349710,-0.939636,-0.474170
212.033211,0.551595,-0.536782,-0.338409
212.133211,-0.227388,-1.183364,0.301911
212.233211,-0.495703,0.211659,-0.014966
212.333211,0.687203,-0.033902,-0.141869
212.433211,-0.051464,-0.285418,-0.487456
212.533211,-0.304965,-0.705070,-0.503491
212.633211,0.420874,0.169052,-0.432785
212.733211,0.614818,-0.229831,-0.309241
212.833211,-0.775318,-0.344671,-0.142633
212.933211,-0.532964,-0.422554,-0.042912
213.033211,0.588399,-0.899778,-0.061543
213.133211,-0.196540,-0.292749,0.157599
213.233211,0.620926,-0.029168,0.357956
213.333211,1.561478,0.043676,0.274576
213.433211,-0.184781,-0.293207,0.191653
213.533211,-0.069178,-1.043327,0.021532
213.633211,0.578014,-0.343143,-0.035887
213.733211,-0.428204,-0.415529,-0.098346
213.833211,-0.142022,-0.181116,0.223112
213.933211,0.110258,-0.535102,0.643986
214.033211,-0.257778,-0.159889,0.147825
214.133211,0.001680,-0.176229,0.027488
214.233211,-0.650705,0.099874,-0.023976
214.333211,0.339478,-0.112701,0.113312
214.433211,-0.693770,-0.655897,0.128736
214.533211,1.504975,0.207077,-0.054671
214.633211,-2.458508,-0.047341,0.485776
214.733211,2.967496,0.649178,-0.681400
214.833211,-1.277740,-2.290677,0.628104
214.933211,0.731031,0.438588,-0.385597
215.033211,-0.635434,-0.319779,0.031917
215.133211,0.359025,0.187836,-0.171190
215.233211,-0.886797,-0.463786,0.074523
215.333211,-0.074371,-0.282364,0.044592
215.433211,0.911079,0.355360,0.048104
215.533211,-1.289804,-0.120948,0.360247
215.633211,0.304813,0.575876,0.215171
215.733211,0.218378,-0.127362,0.103386
215.833211,0.031459,-0.320542,-0.045203
215.933211,0.339478,0.373839,-0.020158
216.033211,-0.806471,-0.012828,-0.055587
216.133211,0.525329,0.411253,-0.288778
216.233211,-0.339326,-0.278394,0.183254
216.333211,-0.063223,0.245408,0.117435
216.433211,-0.374755,0.039705,0.134234
216.533211,0.597561,0.085671,-0.169052
216.633211,-0.116825,-1.085476,-0.426830
216.733211,-0.082312,0.082312,-0.565797
216.833211,0.115297,-1.161679,-0.346656
216.933211,-0.419805,0.072080,0.606877
217.033211,-1.100594,0.659715,0.104455
217.133211,-0.313517,0.242964,1.161221
217.233211,0.031764,1.670362,0.942079
217.333211,0.838846,1.991668,0.093765
217.433211,0.704154,-0.641542,-0.598783
217.533211,-0.377504,0.200511,-1.210394
217.633211,-0.122628,-0.381169,-0.009926
217.733211,0.406824,1.205965,0.947119
217.833211,-0.560911,0.042759,-0.570226
217.933211,-0.702627,0.324818,0.592675
218.033211,-0.703238,0.904359,0.835792
218.133211,1.222916,0.308631,0.147367
218.233211,-1.801389,0.394760,0.157293
218.333211,0.164776,-0.205245,0.120642
218.433211,0.499826,-0.564270,0.583817
218.533211,-0.510821,-0.007330,0.137593
218.633211,-1.000110,-0.023823,0.433854
218.733211,-0.136066,0.073760,-0.047493
218.833211,0.408046,0.433243,0.380558
218.933211,0.489441,0.954296,0.025350
219.033211,-0.938109,0.094681,0.666740
219.133211,-0.219294,0.200969,0.616039
219.233211,1.630199,1.495354,0.254265
219.333211,-1.152974,0.393691,0.435229
219.433211,-0.554649,1.425412,-0.028252
219.533211,0.358262,-0.001833,0.061848
219.633211,0.262970,-0.208299,-0.284655
219.733211,0.538004,0.155308,-0.136372
219.833211,-0.269384,0.722327,0.252738
219.933211,0.470963,0.615581,0.461495
220.033211,-0.889088,0.263122,0.306187
220.133211,0.392317,0.474934,0.178673
220.233211,0.507309,0.297024,0.236398
220.333211,-0.187988,0.230900,0.070706
220.433211,0.451111,0.501506,-0.344365
220.533211,-0.504407,-0.047341,-0.156377
220.633211,-0.368494,-0.008094,-0.016340
220.733211,-0.132096,-0.435076,0.497993
220.833211,0.229984,1.000110,-0.108273
220.933211,0.025961,-0.021074,0.043523
221.033211,0.705987,-0.138510,0.066277
221.133211,-0.076967,0.220974,0.125835
221.233211,0.062001,-0.088878,0.204023
221.333211,0.166303,0.350321,-0.070706
221.433211,0.242201,0.078188,0.340089
221.533211,-0.000611,0.324360,0.088420
221.633211,0.524107,0.868930,-0.091016
221.733211,-0.186614,0.351543,0.293359
221.833211,0.210895,0.821742,0.091169
221.933211,0.123086,0.668114,-0.122780
222.033211,-0.122933,-0.290916,-0.224792
222.133211,-0.030695,0.220363,-0.456608
222.233211,-0.061237,-0.480431,-0.414154
222.333211,0.209368,-0.188599,-0.163707
222.433211,-0.236856,-0.982701,0.284044
222.533211,-0.045508,0.204939,0.074065
222.633211,-0.561216,-0.228151,0.176840
222.733211,-0.423012,-0.068109,0.163096
222.833211,-0.587482,-0.130569,0.118352
222.933211,0.089795,-0.335202,0.031764
223.033211,0.463786,0.356888,-0.149199
223.133211,-0.253502,-0.615276,0.145382
223.233211,0.193028,0.021532,0.098194
223.333211,-0.204023,0.166303,0.353986
223.433211,0.028404,-0.224486,0.043676
223.533211,-0.504102,-0.705834,0.150116
223.633211,0.897793,-0.147214,-0.115297
223.733211,0.077883,0.447904,-0.241590
223.833211,0.890463,0.102622,0.038178
223.933211,-0.026266,-0.001222,0.073149
224.033211,0.407741,0.029779,0.318404
224.133211,0.025961,0.145382,0.144007
224.233211,0.401021,0.689188,-0.311532
224.333211,0.433854,0.096056,0.184170
224.433211,0.240674,0.506087,0.185698
224.533211,-0.618330,-0.357193,0.054518
224.633211,-0.356582,-1.269646,0.389568
224.733211,-0.321153,0.108884,-0.294123
224.833211,-0.193486,0.060168,-0.326345
224.933211,0.213797,-0.237467,-0.236092
225.033211,-0.019853,0.024281,0.016798
225.133211,-0.518457,1.020268,0.051006
225.233211,-0.537698,0.391095,0.403006
225.333211,-0.339784,0.185850,0.287862
225.433211,-0.579541,1.050810,0.085060
225.533211,0.320389,0.328025,-0.121559
225.633211,0.641848,-0.054518,-0.373686
225.733211,-0.269384,-0.204787,-0.194097
225.833211,0.882369,0.004887,-0.185239
225.933211,-0.742790,-0.695450,0.284502
226.033211,0.521664,-0.181116,-0.187988
226.133211,-0.825560,0.206314,-0.040621
226.233211,0.204634,-0.463939,-0.208604
226.333211,-0.783870,-0.245866,-0.156530
226.433211,-0.148436,0.002291,0.188294
226.533211,-0.305882,0.539073,0.369410
226.633211,0.078494,0.114228,0.272132
226.733211,-0.270758,-0.519373,0.140037
226.833211,-0.085213,0.950173,-0.292596
226.933211,-0.482569,0.386666,0.081854
227.033211,-0.448820,-0.052991,-0.042607
227.133211,0.599852,-0.409573,0.144771
227.233211,-0.286029,0.552053,0.039858
227.333211,0.497230,-0.277477,0.394760
227.433211,-0.347419,0.658035,-0.253349
227.533211,0.283128,-0.007025,0.073302
227.633211,-0.094223,-0.078647,-0.095903
227.733211,-0.257930,-0.137441,-0.236703
227.833211,-0.348488,-0.023365,-0.175771
227.933211,-0.552206,-0.309394,0.308020
228.033211,0.493259,-0.255792,0.072691
228.133211,0.023518,0.772111,-0.278699
228.233211,0.017409,-0.595882,0.062154
228.333211,0.862822,-0.305729,0.024892
228.433211,0.088420,0.365134,0.025503
228.533211,-0.082617,-0.551748,0.152559
228.633211,0.164165,0.327109,-0.206161
228.733211,-0.430189,0.003360,-0.147214
228.833211,0.309394,0.181574,0.279157
228.933211,-0.411406,0.095598,0.373839
229.033211,-0.643680,0.425455,-0.001680
229.133211,0.713622,-0.342991,-0.117588
229.233211,0.331079,0.256250,-0.546708
229.333211,0.237925,-0.387735,-0.029626
229.433211,-0.372770,-0.533117,0.466535
229.533211,0.384834,0.457525,0.158820
229.633211,-0.485471,-0.223876,0.076967
229.733211,-0.066124,0.079868,0.080326
229.833211,0.270758,-0.719120,-0.008857
229.933211,-0.195624,-0.510210,0.199442
230.033211,-0.674528,0.465313,0.072996
230.133211,0.648109,-0.141411,0.035735
230.233211,-0.005039,-0.347114,0.041385
230.333211,-1.327218,-1.447097,0.689036
230.433211,-0.292290,-0.365287,0.156377
230.533211,-0.725228,0.131638,-0.231053
230.633211,0.920700,2.012131,-0.380100
230.733211,-1.414417,-0.467909,0.165234
230.833211,1.032332,0.195471,-0.002902
230.933211,0.172106,0.728588,-0.216240
231.033211,-0.076967,-0.468978,0.137899
231.133211,0.851368,-0.115908,-0.141564
231.233211,0.038178,-0.428815,-0.156988
231.333211,0.682622,0.422706,0.145076
231.433211,-0.357651,0.365745,0.067499
231.533211,-0.915507,-0.237009,0.011912
231.633211,0.831210,-0.776540,-0.404228
231.733211,0.262053,0.033902,-0.172870
231.833211,0.461801,0.134386,0.007941
231.933211,-0.430342,-0.410184,0.152559
232.033211,-0.269689,-0.043523,-0.112090
232.133211,-0.343907,-0.179742,-0.024739
232.233211,0.378114,0.762796,0.150116
232.333211,-0.344212,0.047493,0.444850
232.433211,0.229679,0.380405,0.023670
232.533211,0.756687,0.267398,-0.056351
232.633211,-0.047952,-0.623828,0.129805
232.733211,0.049479,-0.202190,-0.077730
232.833211,-0.247546,-0.272438,-0.080632
232.933211,0.609626,0.315197,-0.435229
233.033211,-0.038636,0.258083,-0.037262
233.133211,0.322222,0.704001,0.241437
233.233211,-0.062001,0.343296,0.093307
233.333211,-0.854575,-0.286487,-0.237772
233.433211,0.384528,-0.597561,-0.502269
233.533211,0.332912,-0.433091,0.237161
233.633211,-0.614207,0.661395,0.288320
233.733211,0.666892,-0.088573,0.106287
233.833211,-0.530979,-0.212880,0.048868
233.933211,0.191806,-0.328636,-0.083686
234.033211,0.047646,0.296872,-0.353528
234.133211,0.631463,0.641848,-0.394302
234.233211,1.285375,0.457525,-0.452791
234.333211,-1.113116,-1.740304,0.469742
234.433211,-0.001985,0.417820,-0.006719
234.533211,-0.089031,0.097125,0.247546
234.633211,1.646691,0.228915,-0.001833
234.733211,0.215935,-0.019242,0.286029
234.833211,0.343754,-0.010232,0.244950
234.933211,0.021685,0.306493,-0.095139
235.033211,-0.719120,-0.351084,0.003818
235.133211,-0.336577,-0.325276,-0.392622
235.233211,-0.105829,-0.120795,-0.062001
235.333211,-0.203870,-0.860837,0.079716
235.433211,-0.742943,0.257625,0.047493
235.533211,-0.125682,0.059710,0.196998
235.633211,0.233344,0.351084,-0.072996
235.733211,0.994612,-0.069942,-0.074218
235.833211,0.161416,0.346198,-0.304507
235.933211,-0.112396,-0.622912,-0.033597
236.033211,0.690410,-0.088573,-0.144771
236.133211,-0.091474,0.254876,0.255334
236.233211,-0.155919,0.113618,0.270758
236.333211,-0.687967,-0.014049,0.209215
236.433211,0.173328,0.121253,-0.092391
236.533211,-0.491579,0.380863,0.037873
236.633211,0.086435,-0.622453,-0.175313
236.733211,-0.058030,-0.428204,0.186461
236.833211,-0.445155,0.190432,0.229679
236.933211,0.715608,0.076967,0.084297
237.033211,0.170579,0.511890,0.019700
237.133211,-0.350626,-0.245561,-0.021532
237.233211,-0.379336,-0.707514,0.114992
237.333211,1.307519,0.463786,-0.215018
237.433211,-0.790589,-0.032833,-0.286335
237.533211,0.334744,-0.466076,0.184934
237.633211,-0.514028,0.313365,-0.009468
237.733211,0.185850,0.371242,-0.022143
237.833211,0.162485,-0.354444,0.295345
237.933211,-0.034207,0.268162,-0.400105
238.033211,-0.334744,0.425150,-0.349863
238.133211,0.338562,-0.253502,0.052991
238.233211,0.118963,0.218683,0.248157
238.333211,-0.038025,-0.616192,0.070247
238.433211,-0.042148,0.127362,-0.049173
238.533211,0.503644,1.049894,-0.132707
238.633211,-0.107204,-0.130110,0.251516
238.733211,0.375671,-0.715760,0.245561
238.833211,-0.210590,-0.027946,0.106135
238.933211,0.880689,-0.816092,-0.124460
239.033211,0.785702,0.404534,-0.466993
239.133211,-2.149113,-0.098499,0.460579
239.233211,1.814827,0.596645,-0.577098
239.333211,-1.575833,-0.294428,0.223723
239.433211,1.140146,-0.089795,0.079257
239.533211,-0.524107,0.395371,0.008705
239.633211,0.886339,0.332606,-0.179742
239.733211,-0.959336,-0.289236,-0.150727
239.833211,-0.066582,-0.175466,-0.319015
239.933211,-0.509599,0.152101,-0.014508
240.033211,0.633601,0.044897,0.165998
240.133211,-0.204328,-0.210437,0.170121
240.233211,0.554802,-0.636503,0.006567
240.333211,-0.317946,0.178826,-0.033138
240.433211,0.234871,0.187225,0.071164
240.533211,-0.311990,0.093307,0.050700
240.633211,-0.165081,0.380252,-0.022754
240.733211,-0.564881,-0.347572,0.198373
240.833211,0.387277,-0.256403,-0.095598
240.933211,0.611458,0.447751,-0.072996
241.033211,-0.353986,-0.952005,-0.396440
241.133211,1.652647,-1.253917,-0.004276
241.233211,-0.267093,0.369257,0.147367
241.333211,0.350321,-0.177298,0.247240
241.433211,0.132401,0.423317,-0.043523
241.533211,-0.259916,0.956587,0.371395
241.633211,-0.577403,-0.251516,0.602448
241.733211,0.127820,-0.070706,-0.353986
241.833211,-0.452638,-0.260832,-0.305729
241.933211,0.854575,-0.140495,-0.359942
242.033211,-0.472032,-0.758672,-0.287251
242.133211,1.838039,0.343754,-0.210895
242.233211,0.890768,-0.099874,0.021685
242.333211,1.956086,-0.651469,0.356429
242.433211,-1.413501,-0.321000,-0.079716
242.533211,0.270758,1.870262,0.310005
242.633211,-0.404686,-0.492648,-0.272896
242.733211,-1.708845,0.209215,-0.643069
242.833211,-0.522733,-0.582596,-0.220516
242.933211,0.992474,0.016798,-0.007330
243.033211,0.957808,0.008552,0.105218
243.133211,-0.611000,-0.234871,-0.007483
243.233211,-0.324818,-0.673306,-0.157751
243.333211,0.642306,0.001374,-0.310769
243.433211,-0.021532,-0.345740,0.034055
243.533211,-0.379642,-0.067040,-0.193639
243.633211,0.395524,0.446377,-0.190890
243.733211,-0.833043,-0.403006,-0.275492
243.833211,1.144575,-0.441948,-0.543349
243.933211,0.634518,-0.861753,-0.449431
244.033211,0.282059,-0.671321,-0.557551
244.133211,-0.379489,-1.084712,-0.372159
244.233211,0.317946,-0.855492,-0.292443
244.333211,1.132053,-0.556024,0.124918
244.433211,-0.203107,-0.647193,0.070247
244.533211,0.017715,-0.312601,0.018173
244.633211,0.765392,-0.272896,0.173481
244.733211,0.350015,-0.513417,0.075745
244.833211,0.118657,-0.035276,-0.262053
244.933211,0.349099,-0.313670,-0.520442
245.033211,-0.083381,-0.517235,-0.429120
245.133211,-0.551901,-0.326040,-0.511126
245.233211,0.082770,-0.674070,-0.105524
245.333211,0.077272,-0.102164,-0.079563
245.433211,0.256556,-0.735307,-0.071775
245.533211,0.131943,-0.346198,0.068109
245.633211,0.327261,0.111327,0.068720
245.733211,0.607488,0.046577,0.284808
245.833211,0.550831,-0.190279,0.092391
245.933211,-0.886950,-0.622148,-0.192417
246.033211,0.150727,-0.077578,-0.246935
246.133211,0.385292,-0.051006,-0.132248
246.233211,-1.216808,-1.082269,0.212269
246.333211,0.669794,-0.133012,-0.229220
246.433211,-2.367644,-0.698198,0.083228
246.533211,2.866859,-1.212074,0.116825
246.633211,-0.401327,0.102164,0.279768
246.733211,1.132511,-0.727672,0.134539
246.833211,-0.723549,-0.342074,0.272743
246.933211,0.223265,0.171343,-0.220058
247.033211,0.855033,0.052533,0.050548
247.133211,-0.596645,0.388346,0.186156
247.233211,0.815176,-0.452791,-0.308478
247.333211,-0.138357,-0.760505,-0.561216
247.433211,-0.063070,-0.612527,-0.046424
247.533211,0.317488,-0.514486,0.140342
247.633211,0.686898,-0.693770,0.165998
247.733211,-0.471269,-0.765086,0.180811
247.833211,-0.635281,0.330927,0.582137
247.933211,0.238536,0.476461,0.405603
248.033211,-0.069178,0.556635,0.199289
248.133211,0.255029,0.727061,-0.209521
248.233211,0.729962,0.182643,-0.282059
248.333211,-0.578778,-0.176993,-0.354139
248.433211,-0.029473,0.026114,-0.142938
248.533211,0.090711,0.388346,0.057878
248.633211,-0.024128,-0.001374,0.305271
248.733211,-0.005803,-0.568852,0.276714
248.833211,0.497841,0.129347,0.157293
248.933211,-0.101706,0.224486,0.070706
249.033211,0.507919,-0.574807,0.051617
249.133211,-0.663380,-0.399494,-0.359789
249.233211,-0.077425,0.149352,-0.084755
249.333211,0.166456,0.192417,-0.201885
249.433211,-0.763559,-0.143244,0.319320
249.533211,1.229941,1.001026,-0.209979
249.633211,-0.833501,-0.152559,0.347114
249.733211,0.768446,0.140189,-0.126751
249.833211,0.590384,0.549610,-0.127514
249.933211,0.143549,0.753175,-0.077883
250.033211,0.109189,0.129347,-0.151337
250.133211,-0.658646,-0.399341,0.118352
250.233211,0.764781,-0.035124,-0.168594
250.333211,-0.200816,-0.112854,-0.062917
250.433211,-0.075134,0.028099,0.259610
250.533211,0.091933,0.153017,0.019242
250.633211,-0.230137,0.059405,0.011759
250.733211,-0.021532,0.063528,-0.084602
250.833211,0.473865,-0.321611,-0.207841
250.933211,0.363454,0.179131,-0.117741
251.033211,1.004080,2.370851,-0.122322
251.133211,-0.499826,-0.010537,-0.039247
251.233211,-2.927180,0.336577,0.043828
251.333211,-0.840679,0.253349,0.122933
251.433211,-0.214713,-0.391095,0.028710
251.533211,0.346809,0.333675,-0.058641
251.633211,-0.263886,-0.149963,0.113465
251.733211,-0.321916,0.053296,-0.063375
251.833211,0.593285,0.528841,-0.088115
251.933211,-0.522274,-0.314586,0.059099
252.033211,-0.411558,0.294886,0.117894
252.133211,0.484402,0.047646,-0.188599
252.233211,-0.269231,-0.337188,-0.244186
252.333211,0.558773,-0.168747,-0.238994
252.433211,0.619857,-0.139579,-0.225555
252.533211,-0.682469,-0.063986,-0.049937
252.633211,-0.096667,0.024739,0.297024
252.733211,0.145534,0.221432,0.309547
252.833211,-0.158668,-0.987435,0.180658
252.933211,0.199289,0.299926,-0.152101
253.033211,0.215171,-0.040469,0.296261
253.133211,0.114381,0.334744,0.090711
253.233211,-0.148436,-0.222807,-0.058183
253.333211,-0.401937,0.030848,-0.045355
253.433211,-0.073760,0.016951,-0.004887
253.533211,0.159584,0.293359,-0.228610
253.633211,-0.434618,-0.334439,-0.159126
253.733211,0.470200,0.112090,-0.066124
253.833211,0.005956,0.718967,-0.222654
253.933211,0.254418,-0.372006,0.169816
254.033211,0.260221,0.051006,0.079257
254.133211,0.056045,-0.236398,0.135455
254.233211,-0.301606,0.473407,-0.249073
254.333211,-0.105524,0.036040,0.030390
254.433211,-0.015577,0.122322,0.339784
254.533211,-0.489900,0.251211,0.185392
254.633211,0.332148,-0.364676,-0.055282
254.733211,-0.076967,0.608709,-0.398120
254.833211,-0.002443,-0.084755,-0.124613
254.933211,0.105982,-0.347114,-0.218072
255.033211,0.217767,-0.198831,-0.433549
255.133211,-0.062001,0.040163,0.184018
255.233211,0.118810,-0.208910,0.373686
255.333211,0.384528,0.282822,0.222196
255.433211,0.085671,-0.161722,0.155613
255.533211,-0.253960,0.013744,-0.022601
255.633211,-0.014660,-0.163249,0.038331
255.733211,0.530521,0.751189,-0.184629
255.833211,-0.406977,-0.059405,0.119268
255.933211,-0.143855,-0.222196,-0.003054
256.033211,0.143244,0.172717,-0.176688
256.133211,0.102317,-0.342991,-0.041232
256.233211,-0.171801,0.434312,-0.401021
256.333211,-0.056656,-0.396134,-0.066582
256.433211,-0.350321,-0.132554,-0.036193
256.533211,0.145382,-0.234413,0.099110
256.633211,-0.468825,-0.182949,-0.004734
256.733211,0.430495,0.056962,0.168136
256.833211,-0.233649,0.283280,0.032375
256.933211,0.266635,0.387735,-0.333064
257.033211,-0.300079,-0.659868,-0.158515
257.133211,-0.339478,-0.103080,-0.215171
257.233211,-0.230137,0.065513,0.345892
257.333211,-0.507461,-0.293665,-0.016035
257.433211,-0.030084,-0.150268,0.023670
257.533211,-0.131332,-0.031611,0.327872
257.633211,-0.210437,0.105524,0.349099
257.733211,-0.916118,-0.021532,0.239452
257.833211,0.364218,0.481958,0.040774
257.933211,-0.491121,-0.271522,0.359484
258.033211,-0.445308,0.690105,0.294581
258.133211,0.005192,0.475545,0.455692
258.233211,0.007788,0.324513,-0.012522
258.333211,0.026114,0.325276,-0.400258
258.433211,-0.068262,-0.447598,-0.123086
258.533211,0.225555,0.266940,-0.079410
258.633211,-0.080937,0.594354,0.081395
258.733211,-0.282059,-0.267093,0.190432
258.833211,-0.145840,0.161722,-0.141869
258.933211,-0.177298,0.334744,-0.114839
259.033211,0.221279,0.329552,-0.090253
259.133211,5.507399,0.266482,-0.664144
259.233211,-0.933069,-0.526398,-0.048562
259.333211,2.602668,-0.293359,-0.057114
259.433211,-3.521687,0.047493,-0.087504
259.533211,0.587482,0.230442,0.039094
259.633211,-0.557398,-0.239147,0.262970
259.733211,-0.050395,-0.125682,0.425302
259.833211,-0.475239,0.575724,0.427135
259.933211,0.841442,1.179088,0.161111
260.033211,-0.691174,0.031153,-0.178978
260.133211,0.518304,-0.665365,0.055740
260.233211,1.688382,0.639710,0.173939
260.333211,-1.797724,0.143091,0.186156
260.433211,0.523496,1.112964,-0.378267
260.533211,-0.344671,0.160042,0.144160
260.633211,-0.983922,-0.624286,0.123697
260.733211,1.523300,-0.103233,-0.078188
260.833211,0.064597,-0.293970,-0.208452
260.933211,-0.953074,-0.066735,-0.019853
261.033211,-0.315044,0.162180,-0.143091
261.133211,0.187072,-0.437672,0.351543
261.233211,-0.356888,0.439657,-0.002443
261.333211,-0.437519,-0.225861,0.224334
261.433211,-0.408657,0.069026,0.156071
261.533211,-0.439199,0.078341,0.051311
261.633211,0.238536,0.442559,0.218072
261.733211,-0.579389,-0.304660,0.368952
261.833211,1.971357,-0.289694,-0.286029
261.933211,-2.385817,-0.365592,-0.105829
262.033211,0.815939,0.259916,-0.221890
262.133211,0.072996,-0.454776,-0.093765
262.233211,-0.208604,0.031000,0.055740
262.333211,0.013744,-0.047341,-0.092696
262.433211,0.026266,-0.474170,-0.219752
262.533211,0.159584,-0.348336,-0.062459
262.633211,0.111785,-0.314739,0.179436
262.733211,-0.089947,0.134386,0.240216
262.833211,-0.067193,0.243728,0.327109
262.933211,0.041079,0.163554,0.010079
263.033211,-0.310616,-0.262664,0.103386
263.133211,-0.603670,-0.381780,0.235634
263.233211,8.666243,0.386514,-0.480889
263.333211,-1.682732,-0.807693,0.456456
263.433211,6.800257,0.228457,-0.018478
263.533211,-7.308024,-1.021184,0.444086
263.633211,1.760767,0.375824,0.295803
263.733211,-1.123501,-0.054365,0.222348
263.833211,0.533728,0.412780,0.026877
263.933211,0.260832,0.859004,0.183101
264.033211,-0.011759,0.378420,0.507003
264.133211,-0.551748,0.923296,0.855644
264.233211,0.259152,1.437934,0.820215
264.333211,-0.541974,0.800821,0.359789
264.433211,-0.234871,-0.171037,0.316877
264.533211,-0.363454,-0.219905,0.147978
264.633211,0.713928,1.159693,0.184629
264.733211,0.021227,0.663686,0.411711
264.833211,0.466535,1.014617,0.457372
264.933211,0.301453,1.127319,0.621079
265.033211,0.129652,1.346766,0.296719
265.133211,-0.399494,-0.700947,-0.097736
265.233211,0.679720,0.415071,-0.582901
265.333211,0.305882,0.727214,0.506240
265.433211,-0.609778,0.431564,0.348794
265.533211,-0.144160,0.514639,0.686592
265.633211,-0.529910,0.789978,0.738209
265.733211,0.223417,1.137092,0.486540
265.833211,0.585344,0.653607,0.004887
265.933211,0.173328,-0.122017,-0.979494
266.033211,0.097583,-1.061653,-1.391968
266.133211,0.207383,-1.051879,-1.200315
266.233211,0.017256,-1.100747,-0.589773
266.333211,0.381627,-0.373075,-0.053602
266.433211,0.199136,0.628715,0.622606
266.533211,-0.464855,0.586872,0.979952
266.633211,1.221236,1.289499,0.403312
266.733211,-1.006524,1.013090,0.761727
266.833211,-0.058947,0.729962,0.460273
266.933211,-0.161569,-0.542127,-0.377656
267.033211,0.755007,-0.429884,-0.684607
267.133211,0.260526,-0.168747,-0.406824
267.233211,-0.026419,-0.259152,-0.210437
267.333211,0.589468,0.039858,-0.201427
267.433211,-0.324665,0.237620,0.439963
267.533211,0.805860,0.601379,-0.111327
267.633211,-0.498757,-0.729810,-0.037109
267.733211,0.010537,-0.266482,-0.357956
267.833211,0.954296,0.410031,-0.601532
267.933211,-1.400062,-0.867098,0.187377
268.033211,-0.724159,-0.643069,0.489747
268.133211,-0.500742,1.193290,-0.087657
268.233211,0.668572,-0.193944,0.148436
268.333211,-1.083338,-0.211200,-0.091933
268.433211,0.448209,-0.085824,-0.206772
268.533211,-1.209478,0.206466,0.178367
268.633211,0.615734,-0.155002,-0.186767
268.733211,-0.348030,0.067651,0.032375
268.833211,-0.719578,-0.070706,-0.298857
268.933211,0.302522,-0.627798,-0.300231
269.033211,0.343143,-0.144007,-0.152865
269.133211,-0.358109,0.984838,0.593133
269.233211,0.315808,0.262664,0.026877
269.333211,0.587177,0.098499,0.210131
269.433211,-0.036040,0.093460,-0.270147
269.533211,-0.161569,-0.687050,-0.241285
269.633211,0.140342,-0.579999,-0.144160
269.733211,-0.213949,-0.045508,0.184476
269.833211,0.313823,-0.378114,0.169968
269.933211,-0.022143,-0.448056,-0.011453
270.033211,-0.726145,-0.138051,0.139426
270.133211,0.660326,0.542890,0.445308
270.233211,-1.463743,1.033554,0.001680
270.333211,0.656050,0.099110,-0.144465
270.433211,0.596034,-0.232886,-0.243881
270.533211,-0.048410,0.238689,-0.091322
270.633211,0.057878,0.434007,0.002138
270.733211,0.041538,0.045814,0.060474
270.833211,-0.118199,0.256403,-0.511737
270.933211,-0.144618,-0.895655,-0.151948
271.033211,-0.015729,-0.027183,0.065819
271.133211,-0.062612,0.008857,0.122017
271.233211,-0.214713,0.229984,0.100637
271.333211,0.554497,0.051158,0.188905
271.433211,-0.076661,-0.115908,0.101859
271.533211,-0.008094,0.503491,-0.055740
271.633211,0.204176,-0.115450,0.140189
271.733211,-0.794407,-0.172106,0.001222
271.833211,0.217156,-0.492801,-0.019700
271.933211,0.748288,-0.050853,-0.039858
272.033211,-0.441032,0.253196,0.073913
272.133211,-0.503033,0.119421,-0.215782
272.233211,0.772111,0.883896,-0.417972
272.333211,0.033444,-0.598630,-0.311838
272.433211,-0.490968,-0.814718,-0.317030
272.533211,0.328941,-1.007898,-0.096056
272.633211,1.160610,-0.355360,0.366661
272.733211,-1.237271,0.636808,0.461801
272.833211,-0.393233,0.312754,0.338257
272.933211,0.829072,-0.508988,0.234871
273.033211,0.468062,0.749968,-0.069331
273.133211,-0.320695,0.789215,0.180047
273.233211,-1.254986,-0.181116,0.038636
273.333211,0.315197,0.029321,-0.301759
273.433211,0.047646,-0.385139,0.105829
273.533211,-0.833348,0.301759,0.233038
273.633211,0.625813,0.945744,0.214407
273.733211,0.153628,0.314739,0.066582
273.833211,-0.017867,-0.922074,-0.408046
273.933211,-0.093612,-0.536782,-0.476155
274.033211,0.202649,-0.470505,-0.048410
274.133211,-0.025045,-0.914286,0.269231
274.233211,0.633143,0.546556,0.038789
274.333211,0.435992,1.315001,-0.196387
274.433211,-0.968193,-0.395065,0.309089
274.533211,-0.144007,0.225708,0.064292
274.633211,1.044854,0.551595,-0.120337
274.733211,-0.903749,-0.591606,0.357956
274.833211,0.586108,0.449278,-0.352306
274.933211,0.117435,0.190584,0.052075
275.033211,-0.494328,0.025503,0.130416
275.133211,0.566103,0.165081,-0.307867
275.233211,0.388804,0.042759,-0.107509
275.333211,-0.029626,0.174855,0.151490
275.433211,-0.164776,0.064750,0.195166
275.533211,-0.266940,-0.442864,-0.129041
275.633211,0.662006,-0.159737,-0.133012
275.733211,-0.286793,-0.263733,-0.140800
275.833211,-0.225250,-0.232886,0.061696
275.933211,-0.468978,0.106746,0.071164
276.033211,0.159126,0.625355,0.238689
276.133211,0.204939,-0.118504,0.417056
276.233211,-0.036804,0.435534,0.051769
276.333211,0.001680,-0.146909,-0.245255
276.433211,0.104302,-0.168899,-0.249226
276.533211,-0.069789,0.196235,-0.168594
276.633211,0.037109,-0.674375,0.281601
276.733211,1.019199,0.557245,-0.396593
276.833211,-0.142327,0.154086,-0.289694
276.933211,-0.845413,-0.141869,-0.185392
277.033211,0.374602,0.112396,0.059863
277.133211,-0.112243,-0.328941,0.338715
277.233211,0.056656,0.308478,0.332606
277.333211,-0.258847,0.357040,0.122475
277.433211,0.156682,0.050242,-0.006261
277.533211,-0.496161,-0.342227,-0.211048
277.633211,-0.433396,-0.551137,0.000458
277.733211,0.876719,0.313365,0.036040
277.833211,-0.190890,0.040010,0.434312
277.933211,-0.068568,0.181422,0.121711
278.033211,0.008857,-0.061237,0.211353
278.133211,0.350626,0.663380,0.013897
278.233211,-0.250753,0.106898,0.380558
278.333211,-0.163707,0.609015,0.586719
278.433211,-0.562590,0.134997,0.753327
278.533211,0.722021,0.856255,0.261290
278.633211,0.511890,-0.299621,0.512654
278.733211,0.040469,0.780968,-0.008552
278.833211,0.255334,0.692090,0.120948
278.933211,-0.463480,0.025808,0.285266
279.033211,0.535102,1.546971,-0.354597
279.133211,-0.244950,-0.284197,-0.041079
279.233211,-0.965291,-0.223723,-0.343296
279.333211,0.743401,0.246935,-0.121253
279.433211,-0.243728,0.547625,-0.185545
279.533211,-0.278699,-0.178062,-0.098499
279.633211,-0.196082,0.035735,-0.398578
279.733211,-0.428357,0.050853,-0.215782
279.833211,0.175313,-0.055740,0.178215
279.933211,-0.621537,-0.030390,0.313365
280.033211,0.004887,0.094070,-0.207993
280.133211,0.221279,-0.107204,-0.266177
280.233211,0.457372,-0.079563,0.024892
280.333211,0.433854,0.119573,-0.005498
280.433211,-0.175466,0.112549,0.088115
280.533211,0.201885,0.234565,0.055129
280.633211,-0.004429,-0.116061,-0.274270
280.733211,0.267704,-0.285418,-0.087046
280.833211,-0.276408,-0.016646,-0.012370
280.933211,0.070247,0.187836,-0.086129
281.033211,0.157751,-0.198831,-0.077272
281.133211,-0.082770,0.046730,-0.115756
281.233211,0.377351,-0.241285,-0.432174
281.333211,0.153781,-0.563048,-0.672696
281.433211,-0.003360,-0.703238,-0.680789
281.533211,0.443781,-0.689341,-0.309394
281.633211,0.044286,-0.309089,-0.175008
281.733211,0.166761,-0.189668,0.218836
281.833211,0.183560,0.395676,0.421790
281.933211,-0.191959,0.476919,0.463022
282.033211,-0.410642,0.247546,0.094834
282.133211,0.647804,-0.509294,-0.052227
282.233211,0.373533,-0.327720,-0.278394
282.333211,-0.012981,-0.149505,0.179895
282.433211,-0.082770,0.124766,0.021685
282.533211,0.152101,0.446224,0.333828
282.633211,0.070553,0.300995,0.173481
282.733211,-0.061696,-0.028557,0.093460
282.833211,-0.257319,-0.014508,-0.195624
282.933211,-0.320848,-0.093612,-0.175008
283.033211,0.261595,-1.355317,-0.339326
283.133211,-0.498299,0.059558,0.043981
283.233211,-0.875039,-0.265260,-0.011759
283.333211,0.770126,-0.020311,0.005498
283.433211,0.149963,-0.027183,0.431258
283.533211,0.147520,0.174091,0.111327
283.633211,1.413501,-0.889852,-0.061390
283.733211,-0.285571,0.833501,-0.862669
283.833211,0.652690,0.630089,-0.364370
283.933211,-0.009926,-0.150574,-0.292749
284.033211,0.388346,-0.988351,-0.553122
284.133211,-0.112701,-1.228872,-0.551137
284.233211,0.048104,-0.749204,-0.320848
284.333211,0.287098,-0.066888,-0.038789
284.433211,0.044592,0.157140,0.574807
284.533211,-0.300079,0.388346,0.414613
284.633211,-0.186919,0.064292,0.228457
284.733211,0.101553,0.021991,0.019089
284.833211,0.181880,-0.694075,-0.408046
284.933211,-0.059558,-0.849078,-0.416903
285.033211,-0.080021,-0.018784,0.190584
285.133211,0.078952,0.547625,0.499520
285.233211,-0.062612,0.246782,0.028710
285.333211,0.073607,0.113465,-0.239758
285.433211,-0.137288,-0.333370,-0.198067
285.533211,0.026725,0.039705,0.046577
285.633211,0.016493,0.035735,0.162638
285.733211,0.001069,0.025656,0.004276
285.833211,-0.213338,-0.035124,0.049479
285.933211,-0.129958,-0.280226,0.038942
286.033211,-0.001069,-0.168288,0.066277
286.133211,0.046577,-0.104913,-0.052991
286.233211,-0.081395,-0.378420,-0.074065
286.333211,-0.042148,-0.470352,-0.181116
286.433211,0.005039,-0.417667,-0.095903
286.533211,0.090100,-0.047799,0.108425
286.633211,0.260679,0.557856,0.302064
286.733211,-0.015729,0.459968,0.302522
286.833211,-0.084144,-0.019547,0.172717
286.933211,0.001985,-0.050700,-0.306645
287.033211,0.108884,-0.305729,-0.138815
287.133211,0.020311,0.084755,-0.051769
287.233211,-0.368188,-0.429884,0.129194
287.333211,0.086435,0.371853,0.182643
287.433211,0.041843,0.416598,0.296719
287.533211,-0.059099,0.351390,0.195624
287.633211,0.040774,0.284655,-0.068720
287.733211,0.017562,-0.441032,-0.385597
287.833211,-0.188446,-1.005607,-0.471116
287.933211,0.125376,-0.175313,-0.082770
288.033211,-0.131790,-0.207841,0.133165
288.133211,0.118963,0.010384,0.236703
288.233211,-0.030237,0.426066,0.408657
288.333211,-0.062459,0.069331,0.079716
288.433211,-0.053755,-0.500284,-0.046272
288.533211,-0.177604,-0.018936,0.053449
288.633211,-0.145382,-0.043676,-0.043676
288.733211,-0.001527,-0.165234,0.033902
288.833211,0.054824,0.261748,0.000916
288.933211,0.101553,0.734544,0.325123
289.033211,-0.272132,1.164580,0.241896
289.133211,-0.125835,0.166456,-0.139273
289.233211,-0.019089,-0.238536,-0.151643
289.333211,0.004276,-0.086740,-0.361011
289.433211,0.004123,-0.207077,-0.204939
289.533211,0.076661,-0.520595,0.026725
289.633211,-0.319168,-0.196693,-0.066735
289.733211,0.042301,-0.278241,-0.010843
289.833211,0.103844,-0.180353,0.014049
289.933211,0.002291,0.007025,0.045661
290.033211,0.166609,0.182796,-0.158515
290.133211,0.308631,-0.225708,-0.033444
290.233211,-0.058641,0.076050,0.094987
290.333211,-0.195777,0.348641,0.209979
290.433211,0.014355,0.238230,0.112549
290.533211,0.384376,0.183101,-0.065972
290.633211,-0.164165,-0.430495,-0.137899
290.733211,-0.034666,-0.004123,-0.198067
290.833211,-0.036498,-0.047646,-0.105829
290.933211,-0.080326,0.135761,-0.011148
291.033211,-0.042607,0.258388,0.053449
291.133211,-0.433243,-0.182643,0.118504
291.233211,0.112854,-0.111327,-0.134081
291.333211,0.072080,-0.186308,-0.040010
291.433211,-0.056198,0.027488,0.152254
291.533211,-0.204787,0.094223,0.190432
291.633211,-0.319473,0.266024,0.173633
291.733211,0.027488,-0.035582,-0.054671
291.833211,0.116214,-0.065208,-0.031459
291.933211,0.076050,0.110411,0.135914
292.033211,-0.020616,-0.014202,0.003818
292.133211,-0.375824,-0.086282,-0.106746
292.233211,0.009468,-0.077730,-0.152712
292.333211,0.150116,-0.184018,-0.150879
292.433211,0.092085,-0.280990,-0.156071
292.533211,0.043370,-0.171495,-0.088420
292.633211,-0.291680,-0.420263,0.051006
292.733211,-0.102775,0.139579,0.149505
292.833211,0.019853,0.299315,0.450347
292.933211,0.018631,0.552511,0.329552
293.033211,0.012064,0.487303,0.080785
293.133211,-0.002291,0.093460,-0.176840
293.233211,0.076050,-0.204023,-0.487303
293.333211,0.023976,-0.331843,-0.283128
293.433211,0.202954,-0.078952,-0.133012
293.533211,0.258999,0.357498,-0.180200
293.633211,0.167678,-0.128736,-0.106593
293.733211,0.082006,-0.457219,-0.189668
293.833211,0.036345,-0.563201,-0.185698
293.933211,-0.015118,-0.252433,0.124766
294.033211,-0.012064,-0.439352,0.455387
294.133211,0.335508,0.493565,0.368494
294.233211,-0.019853,0.268467,0.393233
294.333211,-0.046883,0.216698,0.119268
294.433211,0.160347,0.015424,-0.169968
294.533211,0.067193,-0.800057,-0.497382
294.633211,-0.164012,-0.521816,-0.410642
294.733211,0.096361,-0.087046,0.030084
294.833211,-0.012675,0.478141,0.362385
294.933211,0.071469,-0.163860,0.372464
295.033211,0.278699,0.534797,-0.446071
295.133211,0.048410,0.051006,-0.142327
295.233211,0.051769,0.077272,0.297635
295.333211,-0.030542,-0.034055,0.110869
295.433211,0.238230,0.405297,-0.267246
295.533211,0.145076,-0.197609,0.041538
295.633211,0.207535,0.017562,-0.100026
295.733211,-0.075134,-0.129958,-0.107662
295.833211,0.087657,-0.031764,-0.076356
295.933211,-0.260374,-0.548999,0.273354
296.033211,-0.170885,0.267246,0.074218
296.133211,-0.037414,0.281295,0.131790
296.233211,0.018936,0.032833,-0.141411
296.333211,-0.039400,-0.064444,-0.102775
296.433211,0.373075,0.089184,-0.316266
296.533211,0.149810,0.034513,0.155002
296.633211,-0.126904,0.177604,0.358109
296.733211,0.038942,0.232275,0.156224
296.833211,-0.067499,0.137593,-0.003207
296.933211,-0.422706,0.210895,0.018784
297.033211,-0.045050,0.268620,-0.114228
297.133211,-0.072385,-0.184934,-0.082006
297.233211,0.054060,0.055129,-0.109647
297.333211,0.235329,0.539836,0.090100
297.433211,0.403770,-0.038789,0.257319
297.533211,0.180047,0.131638,0.028710
297.633211,0.025197,-0.118657,-0.204481
297.733211,0.015271,-0.329705,-0.176840
297.833211,-0.283433,-1.046534,0.068720
297.933211,-0.062765,0.159278,-0.333523
298.033211,-0.170426,-0.217003,0.130110
298.133211,-0.066430,-0.176993,0.181116
298.233211,0.323138,-0.233344,0.156377
298.333211,-0.349099,-0.187683,0.381474
298.433211,0.063528,0.077883,0.255487
298.533211,0.210284,0.227541,-0.052533
298.633211,-0.608251,0.013744,-0.005039
298.733211,-0.311990,-0.040774,-0.070553
298.833211,0.209826,0.603823,-0.180964
298.933211,0.568393,-0.129041,-0.189668
299.033211,-0.198220,-0.154850,-0.362538
299.133211,0.021991,-0.382238,-0.098652
299.233211,0.150268,0.285418,0.130721
299.333211,-0.421943,-0.015424,0.331385
299.433211,-0.263122,0.118504,0.245866
299.533211,0.115145,-0.050700,-0.112243
299.633211,0.150268,-0.180658,-0.072233
299.733211,0.248615,0.282822,0.032069
299.833211,0.313517,0.043828,-0.079716
299.933211,0.031306,-0.254876,-0.288014
300.033211,0.015271,-0.108273,-0.089184
300.133211,-0.146909,-0.086282,0.021380
300.233211,-0.294734,-0.445766,0.139884
300.333211,-0.165234,0.144771,-0.002902
300.433211,0.151032,0.058489,0.101248
300.533211,0.140648,0.062306,-0.060168
300.633211,-0.044592,-0.127667,-0.047493
300.733211,0.293665,0.272285,-0.337035
300.833211,-0.007177,-0.387430,0.216545
300.933211,0.014813,0.211811,-0.028863
301.033211,-0.111785,0.057725,0.144618
301.133211,-0.351084,0.027794,-0.009621
301.233211,-0.165845,0.629020,-0.130874
301.333211,0.061237,0.046272,0.010995
301.433211,0.017256,0.038942,-0.080021
301.533211,-0.004123,-0.049631,-0.045814
301.633211,0.020616,0.134997,-0.026419
301.733211,-0.315503,0.038636,-0.014660
301.833211,-0.071775,0.137746,-0.118046
301.933211,-0.037567,0.089642,-0.108731
302.033211,-0.120184,0.187225,-0.023823
302.133211,0.316572,0.184476,-0.329858
302.233211,0.175008,-0.522580,-0.068109
302.333211,-0.100332,-0.019700,-0.078494
302.433211,-0.071622,-0.140342,0.388193
302.533211,-0.041232,0.276103,0.392622
302.633211,0.258541,0.934291,0.342380
302.733211,0.153170,0.714080,0.330010
302.833211,0.157904,0.204176,-0.205092
302.933211,0.029015,-0.243270,-0.516166
303.033211,-0.025961,-0.230900,-0.508378
303.133211,0.053755,-0.105982,-0.282211
303.233211,0.416140,0.169510,-0.171495
303.333211,-0.274118,0.070400,0.129652
303.433211,-0.179589,0.007941,0.065055
303.533211,0.148436,-0.182643,-0.103997
303.633211,0.046272,-0.518762,0.217003
303.733211,0.221279,0.224792,0.088573
303.833211,0.225861,-0.226777,0.085519
303.933211,-0.054824,-0.124766,0.148741
304.033211,0.158209,0.180811,0.111174
304.133211,0.177757,0.098499,-0.207993
304.233211,0.127209,0.030084,-0.097736
304.333211,0.146451,0.113312,0.004429
304.433211,0.155308,0.186003,0.078036
304.533211,-0.018020,0.353375,-0.222501
304.633211,-0.013133,-0.286640,-0.264650
304.733211,0.249378,-0.396287,-0.246935
304.833211,-0.320389,-0.123391,0.036804
304.933211,-0.005803,-0.126140,-0.063986
305.033211,-0.133012,0.207077,0.385292
305.133211,0.171190,0.734238,0.294886
305.233211,-0.325123,0.850452,0.168594
305.333211,-0.005345,0.119726,-0.366661
305.433211,0.162791,-0.505171,-0.926655
305.533211,-0.009010,-1.055697,-0.841442
305.633211,0.087198,-0.932611,-0.494939
305.733211,0.019700,-1.164428,-0.167525
305.833211,0.127972,-0.525939,-0.300231
305.933211,0.154239,-0.271216,0.159737
306.033211,0.219294,-0.199747,-0.081395
306.133211,-0.067651,-0.184323,0.191042
