Time (s),Linear Acceleration x (m/s^2),Linear Acceleration y (m/s^2),Linear Acceleration z (m/s^2)
0.078468,0.007198,-0.056066,-0.018355
0.183252,-0.004729,0.059646,0.021334
0.288033,-0.095460,0.032991,0.050325
0.392816,-0.064383,0.070031,0.019581
0.497597,-0.089637,0.039989,0.051002
0.602380,-0.016320,0.024164,0.035502
0.707162,0.227700,0.170586,-0.161013
0.811945,-0.281274,-0.139312,0.222648
0.916726,0.379364,0.522890,-1.255222
1.021509,0.360533,0.386250,-0.871571
1.126291,-0.856618,0.478169,-1.165408
1.231074,0.446146,0.324497,-0.572636
1.335855,0.303724,0.261582,-0.645143
1.440639,-0.263627,0.317540,-0.275281
1.545420,-0.076541,-0.012863,-0.175217
1.650203,-1.314894,-0.199373,-0.268544
1.754985,-0.399574,0.064225,-0.270681
1.859768,-0.407351,0.350266,-1.456945
1.964549,0.318778,0.841081,-1.391007
2.069332,1.210854,0.450766,-0.697230
2.174114,-1.383849,0.168159,-0.627634
2.278897,0.679359,0.285861,-0.703359
2.383679,0.229955,0.469040,-1.198284
2.488462,0.769159,0.514242,-0.316134
2.593243,1.116806,0.920570,-1.308618
2.698027,2.310033,-0.093268,0.550856
2.802808,-2.152394,-0.606849,1.228457
2.907591,0.769565,0.565675,-1.905437
3.012373,1.017667,-0.886554,-0.597111
3.117156,-0.260233,0.535318,0.606896
3.221938,1.061854,0.523892,-0.436438
3.326721,-0.253466,-0.099393,0.015157
3.431503,-0.280698,0.593852,-1.034775
3.536286,0.051234,-0.281977,-0.318881
3.641068,-1.405956,0.167304,-1.532199
3.745851,1.173151,0.455165,-0.324377
3.850633,-0.392071,0.578434,0.452401
3.955416,0.880531,-0.525680,-0.419153
4.060198,0.858244,0.589471,-0.017523
4.164981,-0.335611,0.105338,-1.602918
4.269763,-0.686092,-0.369688,0.689965
4.374547,1.762953,0.748980,0.153850
4.479328,0.579556,0.287149,-0.199980
4.584112,-1.387785,-0.340293,1.009706
4.688893,-0.624232,-1.650408,-3.259681
4.793677,-0.647734,2.359684,0.458842
4.898459,-0.726704,-0.796048,0.824933
5.003242,0.498037,0.213236,-0.587986
5.108024,0.299129,0.152546,0.278372
5.212808,2.073814,0.766077,-1.359019
5.317589,-0.775777,0.160723,0.074018
5.422373,0.017512,-0.696853,0.766590
5.527155,0.633409,0.709886,-0.621122
5.631938,1.308051,-0.195979,0.320390
5.736720,-1.887908,-0.145509,-0.120193
5.841504,0.890852,0.240412,-0.967116
5.946286,-0.581248,0.130403,0.327781
6.051069,0.351425,-0.289937,-0.055984
6.155851,-2.011294,0.621024,-0.087330
6.260635,1.239286,-0.151024,-0.202885
6.365417,-0.860096,0.749548,0.980745
6.470200,0.172374,-0.507429,0.074474
6.574982,1.438560,-1.294375,-5.249434
6.679766,-0.524657,2.598894,2.154775
6.784548,-1.180666,-1.189203,1.072484
6.889332,0.840182,-0.468965,-0.621728
6.994114,0.397834,0.711565,-3.945166
7.098897,-2.647097,-0.928142,3.807427
7.203679,0.700567,1.065178,0.197368
7.308463,-0.806816,-1.662914,-1.775629
7.413245,-1.358333,0.982833,-1.070432
7.518029,0.137561,-0.068328,0.619219
7.622811,-1.352643,0.188564,1.271807
7.727595,1.125989,0.185713,-0.666643
7.832377,-1.229113,0.458695,0.009387
7.937161,1.204717,0.058761,-0.182967
8.041943,-0.471514,0.503708,0.370061
8.146726,-0.028493,-0.742389,0.780585
8.251509,0.139673,-0.245130,-0.393677
8.356292,0.134165,-0.177785,-0.874090
8.461075,-0.257834,-0.022583,0.481077
8.565858,-1.126379,0.427950,-0.086528
8.670641,2.012159,0.825464,-0.385510
8.775424,0.030361,-0.734768,-1.143339
8.880207,-1.167163,-0.313872,-0.856607
8.984991,-0.361640,0.693804,1.648705
9.089773,-1.554610,-0.555024,1.054633
9.194557,-2.214258,-0.434966,0.254001
9.299339,2.344337,1.211560,-1.983392
9.404123,0.014367,-0.376894,1.010952
9.508905,1.025572,-0.029109,-0.665002
9.613689,0.285039,0.485516,0.247766
9.718471,0.172033,-0.957587,0.199815
9.823255,-0.652755,0.466441,0.981916
9.928037,-0.568220,-0.024051,-0.986216
10.032821,-0.303940,-0.484418,0.016701
10.137604,-0.566104,0.838374,-0.881652
10.242388,0.589794,0.476028,1.586772
10.347170,0.099587,-0.942350,-1.518867
10.451954,-1.016333,-0.169213,0.386873
10.556736,-1.768349,0.542794,0.278918
10.661520,2.154925,-0.153709,-0.079894
10.766303,-1.805762,0.595234,0.633907
10.871087,0.400992,-0.856132,0.234929
10.975869,0.131653,-0.063836,-1.153831
11.080653,1.096357,2.333872,-0.848205
11.185436,-0.110075,-2.270733,1.284238
11.290220,-0.669765,-0.203934,0.583373
11.395002,-1.526440,0.258156,-0.912519
11.499786,-0.078319,-0.130649,0.979633
11.604568,0.804516,0.468862,-0.239507
11.709353,0.095509,0.234140,-0.916192
11.814135,0.127424,0.241966,0.790591
11.918919,-1.826828,-0.768150,-0.254274
12.023702,-1.087773,1.167262,0.626467
12.128486,0.863140,-0.856604,0.180866
12.233268,-0.849407,-0.756318,-0.217845
12.338052,-1.015210,0.960268,-0.333752
12.442835,0.091219,-0.614389,-0.895746
12.547619,0.246701,0.709466,0.699376
12.652401,0.139595,-0.323203,1.110349
12.757185,0.309108,-0.162442,0.101900
12.861968,1.416428,-0.155200,-0.007889
12.966752,-2.441072,0.067837,-1.971456
13.071535,-0.361502,0.857922,2.374974
13.176319,1.202343,-1.486628,1.143196
13.281101,-0.525593,0.208320,-1.799391
13.385886,-1.352874,0.380560,-0.628080
13.490668,-0.454153,-0.682610,-0.482720
13.595452,-0.462968,0.780637,1.207624
13.700235,1.173163,-0.844136,1.420411
13.805019,-1.681200,0.121826,-0.699374
13.909802,-0.652215,0.496691,-1.012014
14.014586,0.389545,0.056361,-1.087325
14.119369,-0.508904,0.252166,2.370281
14.224153,0.259685,-0.984314,-0.025513
14.328935,-0.406330,-0.060195,-1.216554
14.433720,-0.726374,1.216069,-2.156820
14.538502,-1.159791,-0.486498,0.491777
14.643287,-0.289593,-1.200669,0.912750
14.748069,1.171849,1.013180,-1.493998
14.852854,0.764046,0.392995,-0.673220
14.957636,-0.054934,-1.133811,1.495331
15.062421,-1.632588,0.640136,-0.286485
15.167203,0.414822,-0.536305,4.064553
15.271988,-1.060743,-1.078768,-1.542474
15.376770,-0.102297,0.975419,-2.295102
15.481555,-0.602189,0.336317,0.250007
15.586337,1.326055,0.664887,0.065576
15.691122,0.155440,-1.619875,1.603612
15.795904,-0.677940,0.652153,0.883595
15.900689,0.406646,-0.475379,0.116920
16.005471,-0.469296,0.013133,-1.855985
16.110256,0.247359,-0.080613,-2.906276
16.215038,-1.399159,0.913023,3.370340
16.319823,0.800568,-2.309952,0.560052
16.424606,-0.510066,-0.060293,-0.123314
16.529390,-1.864502,2.377007,2.453457
16.634173,2.709804,-2.301399,-1.105727
16.738957,-2.091340,-0.311402,-0.533731
16.843740,0.021347,1.508042,-0.232048
16.948524,0.204917,-1.922229,-0.731825
17.053307,-0.388560,1.168039,0.172392
17.158091,-0.197136,-0.110658,0.132787
17.262874,0.558297,-1.187726,0.989691
17.367659,-0.818796,0.133508,-0.849321
17.472441,-1.042890,0.783740,-0.281410
17.577226,0.006041,0.017785,1.322047
17.682009,1.122707,-0.278947,-0.317714
17.786793,0.259433,-0.312883,-1.797085
17.891576,-0.544378,1.554413,1.317268
17.996360,-0.441107,-1.230655,1.716157
18.101143,0.298540,-1.161759,-0.786851
18.205928,-0.017747,0.395243,0.431028
18.310710,-1.358390,0.496134,-0.556402
18.415495,0.382408,-0.362552,0.072147
18.520278,-0.248678,-0.163809,-0.533517
18.625062,-1.632879,0.143145,0.488279
18.729845,0.584473,-0.644486,1.044923
18.834630,-1.119236,0.607868,-0.239141
18.939412,0.400865,-0.452981,0.238553
19.044197,-0.425797,0.843417,2.181366
19.148980,1.760508,0.099704,-1.775548
19.253764,-0.132604,-1.545873,-0.585767
19.358547,-0.452663,1.455525,1.509235
19.463332,0.588939,-1.145721,0.060891
19.568115,-0.578738,-1.201270,0.251347
19.672899,-1.510586,0.379978,2.516916
19.777682,0.764883,0.236774,-2.643469
19.882467,2.739889,0.112915,0.000306
19.987249,-1.209111,-0.250005,1.334313
20.092034,-0.900287,-0.607350,-2.192312
20.196817,-1.993271,-1.020881,1.393174
20.301602,-0.478019,0.907041,0.750360
20.406384,0.871253,-1.431710,-2.287798
20.511169,0.807095,0.726973,0.919393
20.615952,0.070790,0.491007,0.517261
20.720737,-1.277386,-0.695540,-1.169143
20.825520,-1.046353,-0.377072,2.165573
20.930304,-0.590594,0.529679,0.625122
21.035087,0.307942,-0.752454,0.007693
21.139872,-0.098725,1.083236,1.771946
21.244655,1.176772,-0.549461,-0.464980
21.349440,-0.509000,-0.507524,1.226628
21.454223,-0.641381,-0.112698,1.032059
21.559007,-0.968551,-0.045242,0.152725
21.663790,0.066725,-0.191567,0.572026
21.768575,0.485760,0.117423,0.253025
21.873358,-0.402495,-0.209076,0.008348
21.978143,-0.536516,-0.582494,1.473620
22.082926,-1.386587,0.385379,-2.138648
22.187711,0.785674,-0.276742,1.112094
22.292494,-0.118616,0.277037,1.364106
22.397278,-1.061842,-0.889668,0.484155
22.502061,0.348191,0.072129,1.258154
22.606846,0.180192,0.304270,-0.099070
22.711629,0.574020,-0.248473,0.424820
22.816414,2.096732,0.122875,-0.744341
22.921197,1.182216,-0.549534,1.344536
23.025982,1.117362,0.394276,1.073661
23.130765,0.819183,0.381040,1.194574
23.235550,1.474336,0.311627,-0.757692
23.340333,0.425247,-1.402484,1.862542
23.445118,-0.198445,0.078434,-0.355182
23.549901,2.279372,1.027707,0.947346
23.654686,1.587364,-0.536140,1.743849
23.759469,1.603502,0.487511,0.454210
23.864254,2.013100,0.747577,1.228223
23.969037,1.090881,-2.440514,-2.972958
24.073822,3.774707,-5.158513,6.158576
24.178605,1.016750,4.664880,-7.043426
24.283390,0.861813,-2.735450,6.579782
24.388173,5.237998,-5.997285,2.200260
24.492958,3.259944,0.516537,-0.653934
24.597741,0.308071,-1.884242,2.802839
24.702526,-0.771594,0.142795,0.767016
24.807310,0.078643,0.992866,0.969512
24.912095,0.337527,-1.901191,2.097959
25.016878,1.425110,-0.593947,-2.625071
25.121663,1.526249,1.570723,0.765405
25.226446,3.728395,-0.168012,0.097605
25.331231,2.356070,0.643776,1.046881
25.436014,1.853768,-0.037874,1.259153
25.540799,1.185949,-0.073204,1.405724
25.645583,1.062319,-0.214074,2.894252
25.750368,-0.142825,0.503021,-2.293458
25.855151,0.107158,0.974754,-0.562627
25.959936,-1.062366,-1.401944,0.606822
26.064719,-2.131248,-0.064826,1.659216
26.169504,0.325266,-0.566051,-0.519552
26.274288,0.417436,-0.088989,-0.097309
26.379073,0.906601,0.903660,1.299367
26.483856,-0.043461,-0.244147,-1.702517
26.588641,-0.139272,0.335337,1.992734
26.693425,2.990017,-0.845914,-1.500527
26.798210,-1.941179,0.580798,2.743418
26.902993,-0.205681,-0.958068,1.030256
27.007778,-0.698364,0.037969,0.062482
27.112561,1.335466,0.153392,-0.085082
27.217347,0.006889,-0.471447,0.000012
27.322130,-0.213092,0.290547,2.390429
27.426915,-1.435185,-0.600077,0.580001
27.531698,0.132335,-0.693080,-1.516404
27.636484,0.231657,0.564549,-0.745368
27.741267,-0.698291,-0.148874,1.463550
27.846052,0.653860,0.055469,0.951088
27.950836,-0.008919,-0.032832,-0.190453
28.055621,-0.253425,-0.953803,-0.072083
28.160404,-0.425663,1.076120,0.207571
28.265189,1.517868,-0.087612,1.643082
28.369973,0.057783,-0.934812,0.034390
28.474758,-0.340874,-0.295179,0.215836
28.579541,-2.011143,-0.007651,1.376303
28.684327,0.094271,-0.431918,-0.845698
28.789110,-1.236326,0.555045,1.565029
28.893895,-0.369792,0.192455,0.088473
28.998679,0.560804,-0.962671,1.356681
29.103464,-1.784563,0.228449,0.313652
29.208247,0.207742,-0.817416,-0.015931
29.313033,-0.290314,0.945779,1.005679
29.417816,1.101387,-0.473342,-0.375870
29.522601,0.938078,0.717606,0.801852
29.627385,-1.649674,-1.530060,1.395349
29.732170,-0.835397,0.069512,0.587538
29.836953,0.290791,0.277972,1.223199
29.941739,-0.336044,-0.757696,-0.989098
30.046522,-0.311354,0.980668,0.216001
30.151307,0.274687,-0.300068,1.718994
30.256091,0.615068,-0.901554,-0.024474
30.360876,-0.644511,0.374134,1.962142
30.465660,-2.116312,-1.346638,0.927216
30.570445,0.108929,0.553691,-0.567056
30.675229,-0.221203,0.177334,1.649803
30.780014,0.202448,-0.517713,0.352821
30.884797,-0.158387,-0.118877,-0.059300
30.989583,-0.316364,0.228050,0.555536
31.094366,-0.004637,-0.984547,2.231978
31.199151,0.077551,0.342800,-0.709489
31.303935,-0.514207,-1.006274,0.175728
31.408720,-1.870242,0.262542,0.630546
31.513504,-0.128333,0.253642,2.526581
31.618289,0.042984,0.025137,0.668462
31.723073,-0.115026,0.648991,0.590662
31.827858,-0.473413,-0.005868,1.757793
31.932641,0.763985,-0.934117,-1.456709
32.037427,0.167742,-1.021507,0.821102
32.142210,0.198153,-1.246603,0.370885
32.246996,-1.074756,-1.815412,-0.094364
32.351779,0.521014,1.544723,2.679368
32.456565,-0.421232,0.016158,0.362903
32.561348,1.235260,-0.180879,-0.321069
32.666133,-0.611815,1.503629,0.773032
32.770917,-0.707762,-0.815336,0.207941
32.875702,-0.310829,-0.186971,0.941752
32.980486,0.705303,-0.563088,0.506991
33.085271,-0.676530,-0.043226,0.519271
33.190055,0.268904,0.394979,0.895164
33.294840,0.873331,-0.778748,0.622294
33.399624,-0.434955,0.401827,0.275254
33.504409,-0.767646,-0.250035,1.067586
33.609193,-0.498904,-1.289812,1.216240
33.713978,-0.641791,0.152605,-0.153357
33.818762,0.416372,0.561232,1.195054
33.923547,0.960539,-0.962434,-0.056051
34.028331,-1.446594,0.503906,0.508329
34.133116,0.364061,-0.254495,-0.044866
34.237900,-2.156509,-1.116606,3.091322
34.342685,-0.699984,0.118587,-0.503061
34.447469,0.006838,-0.079849,2.109316
34.552254,1.034338,-0.352820,-0.685899
34.657038,0.239703,0.227460,-0.336616
34.761823,-0.122743,-1.864527,-0.372972
34.866607,-0.668904,1.862695,4.798721
34.971392,-0.130601,-0.805685,-2.666894
35.076176,-0.891660,-1.238337,1.094375
35.180961,0.308831,1.311748,-0.517182
35.285745,-1.659604,-1.083635,4.107717
35.390530,-1.354400,0.344546,0.536646
35.495314,-0.206355,-1.606587,-1.812248
35.600100,-0.245019,1.328045,0.276805
35.704883,-0.447111,-0.408480,3.513939
35.809669,-0.512530,0.068612,-2.619939
35.914452,0.950592,-0.113215,0.462687
36.019238,-0.352461,-0.783222,2.476946
36.124022,-1.210554,0.094191,0.176079
36.228807,-1.027237,-0.365732,0.552420
36.333591,0.899715,-0.633150,-0.008070
36.438376,-1.220211,0.710418,0.252621
36.543160,-0.893164,0.094531,-0.022737
36.647945,0.065562,-0.203438,2.395194
36.752729,-0.830928,-1.375203,1.774300
36.857514,-0.867674,0.640166,-0.354620
36.962298,-0.571818,-1.100164,-1.701874
37.067084,-0.218374,1.801526,1.430081
37.171867,0.398256,-1.874625,1.829760
37.276653,0.277624,1.073555,1.311334
37.381437,-0.032653,-0.306485,-0.850947
37.486222,-0.429156,-1.027144,1.171386
37.591006,-1.229607,0.176181,0.024748
37.695791,-0.476050,-1.244916,1.316787
37.800575,0.278159,0.044150,1.233763
37.905361,-1.440655,-0.428347,0.681987
38.010145,-0.113292,-0.915716,0.475262
38.114930,-1.486074,0.217303,0.333881
38.219714,-1.049971,-0.157287,1.355178
38.324499,0.040636,0.188589,0.157900
38.429283,0.476692,-0.113665,-0.025207
38.534069,-1.192222,-0.146101,-0.430996
38.638853,-1.858474,-1.005225,2.890246
38.743638,1.100163,0.235724,-0.495168
38.848422,0.317113,0.297822,-0.092348
38.953207,-2.906922,-0.089503,1.332902
39.057991,-1.012719,-0.841461,1.884179
39.162777,1.528766,-0.082058,-1.050212
39.267561,-0.016589,0.440838,0.956434
39.372346,-0.552447,-0.208745,1.036310
39.477130,-0.467647,-1.539276,1.183943
39.581915,0.332650,0.421283,-1.169900
39.686699,-1.261052,-0.280863,0.438478
39.791485,-0.441653,-0.008295,2.384690
39.896269,0.510094,0.274675,-0.106601
40.001054,1.355337,-0.406110,-1.415779
40.105838,-1.316816,-0.010859,-0.361027
40.210624,-1.856843,-0.876323,3.780060
40.315407,-0.232955,-0.044243,-2.526069
40.420193,-0.863590,0.012934,3.543073
40.524977,0.535930,-0.544332,-3.181859
40.629762,-0.502085,0.797952,1.879158
40.734546,-0.447893,-1.397943,2.002427
40.839332,-0.968777,1.305563,1.245632
40.944116,0.978100,-0.484294,0.501178
41.048901,0.025235,-0.618770,-0.903674
41.153685,-1.368182,1.566617,-0.253547
41.258471,-0.288443,-0.930670,3.231652
41.363254,-1.292298,-1.151480,0.734933
41.468040,-0.369155,-0.568536,1.408617
41.572824,-1.165338,1.923581,-0.904445
41.677610,-0.801585,-2.184702,-0.917498
41.782393,-0.664913,0.432513,1.418486
41.887179,-0.965515,-0.462605,0.610411
41.991963,-0.197079,-0.719079,2.862136
42.096748,-0.947915,0.893548,-0.163650
42.201532,0.810316,-0.735153,0.642085
42.306318,-0.111589,0.112463,1.019668
42.411102,0.242317,-0.574601,-0.427132
42.515887,-1.257254,0.148073,0.557115
42.620671,-0.285893,-0.284059,1.083414
42.725457,-0.756976,-1.482077,0.438159
42.830241,-1.540148,1.521309,1.011145
42.935026,0.605147,-1.118495,1.128928
43.039810,-1.091824,0.331694,-0.276590
43.144596,0.472739,0.302546,0.173846
43.249380,-0.383014,-1.882378,2.710662
43.354165,-0.389624,1.221634,-0.197209
43.458949,-0.290794,1.024539,0.723506
43.563735,-0.725853,-1.351510,1.381208
43.668519,-0.991031,0.045476,0.186687
43.773305,-0.635082,-1.054579,1.913833
43.878089,-0.958102,-1.261121,0.198807
43.982874,0.252314,0.051040,-0.965631
44.087658,-0.411355,-0.381052,-1.282680
44.192444,0.518261,-0.496946,0.839055
44.297228,-0.191850,0.551777,2.783780
44.402013,-0.333761,0.290542,1.004910
44.506797,-0.471968,-0.760269,0.196633
44.611583,-0.832645,0.837889,0.903188
44.716367,-1.060419,-1.476741,0.333193
44.821153,-0.116164,1.662432,-1.146442
44.925937,-0.289675,-0.471896,2.294339
45.030722,-0.738540,-1.473852,1.261127
45.135506,0.565964,0.268208,-1.001370
45.240292,-0.635554,0.956323,0.076679
45.345076,0.710313,-1.641707,0.947376
45.449862,-0.508688,1.025224,1.948658
45.554646,-0.255773,-1.178211,0.677104
45.659431,0.454524,-0.854630,-1.867965
45.764215,-0.685640,1.569561,0.665409
45.869001,0.287755,-0.086751,2.765868
45.973785,-0.760755,-1.597456,0.157350
46.078571,-0.456631,0.195028,-0.022731
46.183355,-1.584320,-0.419752,1.111944
46.288141,-0.783275,-0.945605,-0.428555
46.392925,0.985421,0.748976,1.470492
46.497710,0.225938,1.243694,0.591535
46.602495,0.329438,-1.672409,1.180913
46.707280,-1.353775,-0.333460,-0.152014
46.812064,-0.366504,0.077013,-1.468801
46.916850,-0.078323,0.025034,3.330684
47.021634,0.197816,-0.929515,-0.814854
47.126420,-0.889037,0.757994,-0.765115
47.231204,-0.465322,-0.560540,1.417435
47.335990,-0.504909,-0.496625,1.690840
47.440774,1.249677,1.127247,-1.234268
47.545560,-2.188725,-1.381142,-0.395744
47.650344,-1.282956,1.334524,1.880366
47.755130,-0.064347,-0.498551,-0.347285
47.859914,0.250607,-0.619681,1.328250
47.964700,-1.040903,0.328445,-0.424366
48.069484,-0.631334,0.635642,0.356080
48.174270,0.167861,-0.735240,0.597518
48.279054,-1.458779,-0.270103,-0.035860
48.383840,0.693114,0.742497,1.437441
48.488624,-0.353080,-1.717367,0.822439
48.593410,-0.007247,0.242576,0.351366
48.698194,1.140136,0.454097,-1.771798
48.802980,-0.819094,-0.058746,0.160106
48.907764,-0.783727,-0.419018,2.168376
49.012550,0.052166,-0.860956,-0.207213
49.117334,-0.343992,1.031077,1.096970
49.222120,-0.820696,-0.960373,-0.398222
49.326904,-0.162618,-0.697205,0.142089
49.431690,-0.495922,0.802317,0.218863
49.536474,-1.227981,-0.405306,1.051948
49.641260,0.929563,0.342530,0.692710
49.746044,0.595171,-0.799999,0.261523
49.850830,0.184110,0.070600,0.866410
49.955614,0.972933,0.230076,-0.604004
50.060400,-0.459373,0.157391,0.916439
50.165184,-0.125247,0.233151,0.507985
50.269970,-0.314926,-0.995700,0.921271
50.374754,0.030895,0.330396,0.201623
50.479540,-0.820203,-1.321774,0.457713
50.584324,-1.705418,0.712212,-0.174948
50.689110,0.815924,-0.129271,1.748501
50.793894,0.372324,-0.150611,0.162588
50.898680,0.041153,-0.295464,-0.565493
51.003464,-0.476527,0.403908,0.238772
51.108250,0.800804,0.205714,1.289922
51.213034,-0.417592,-0.619145,0.910707
51.317820,-1.087887,0.468753,0.302078
51.422605,-0.156712,-0.081059,0.330143
51.527391,0.698293,-1.482923,0.102697
51.632175,-0.720079,-0.161458,0.827242
51.736961,-0.688521,0.878376,-0.252956
51.841745,-0.511414,0.120133,-0.287580
51.946531,-0.465594,-0.983948,-0.151001
52.051315,-0.686542,-0.232466,2.230707
52.156101,1.738467,0.275069,0.184303
52.260886,0.816553,0.360950,-0.281163
52.365672,-1.428304,-0.417914,0.762474
52.470456,-0.879620,-0.418492,-0.291965
52.575242,0.310120,-0.206724,2.111248
52.680026,0.144290,-0.169713,0.875930
52.784812,-0.997512,0.417613,-1.138030
52.889597,-0.584249,-0.050586,0.641814
52.994383,-0.100659,-0.843003,0.127594
53.099167,-0.236100,-0.778708,1.329363
53.203953,-1.440142,0.952562,-0.114735
53.308737,0.430365,-0.403044,-1.158013
53.413524,-0.146446,-0.374145,2.248136
53.518308,0.827483,-0.018254,0.858893
53.623094,-0.020638,-0.080513,0.559256
53.727879,-0.258746,0.076185,-1.700289
53.832665,0.214353,-0.194914,2.118873
53.937449,0.857949,-0.387039,1.264819
54.042235,-1.904884,-1.208855,-1.215823
54.147020,-1.025989,1.305184,0.672047
54.251806,-0.657948,-0.402618,1.528905
54.356590,0.064536,-1.073131,0.827579
54.461376,-1.298174,0.897529,-0.026282
54.566161,1.454201,0.817969,-1.161204
54.670947,-0.732319,-1.315753,2.153126
54.775732,-0.421896,0.092106,0.507243
54.880518,-1.081615,-0.141241,0.563377
54.985302,-0.034996,0.259013,0.514153
55.090088,1.487519,-0.094569,-0.293239
55.194873,-1.063744,-0.547482,-0.982188
55.299659,-2.035029,-0.456522,2.094736
55.404444,-0.586057,0.297301,-0.193677
55.509230,0.381228,0.139514,1.437050
55.614014,-0.603093,-0.685298,-0.030148
55.718801,-0.186740,0.475258,0.005320
55.823585,-0.486010,-0.148874,0.526689
55.928371,0.131460,0.093034,1.133142
56.033156,0.072164,-0.865449,0.019437
56.137942,-1.306188,1.570417,0.544182
56.242727,1.831717,-1.511374,0.677944
56.347513,-1.078080,0.063943,-0.211439
56.452298,-0.901425,0.329405,-0.455508
56.557084,-0.291064,-1.075418,2.022627
56.661868,-0.345509,-0.038244,0.265835
56.766655,0.647030,-0.811286,-0.667195
56.871439,-0.071395,1.621772,0.191347
56.976226,-0.743352,-2.539294,2.707797
57.081010,-0.492096,2.221019,-2.250573
57.185796,-0.014434,-1.754284,-0.260938
57.290581,0.084682,0.443741,2.702287
57.395367,0.719360,-0.700912,-0.295543
57.500152,-0.623225,0.920547,0.557014
57.604938,-0.726749,-0.848677,0.298045
57.709723,-0.297953,0.435461,0.479385
57.814509,-0.583928,-0.453002,0.302724
57.919294,0.550969,-0.489437,0.664564
58.024080,0.114596,0.350003,-2.603743
58.128865,-1.427460,-0.182791,3.304111
58.233651,-0.481106,-0.172829,-1.290030
58.338436,0.246841,0.270821,0.888020
58.443222,0.401648,0.765110,-0.176221
58.548006,-0.083107,-1.290395,2.259140
58.652793,0.301009,-0.177923,-0.145654
58.757577,-0.513612,1.378341,-1.486822
58.862364,-0.548911,-0.463086,1.632600
58.967148,-2.027802,-1.437768,0.113910
59.071935,-1.264848,0.509130,1.656323
59.176719,1.672001,0.041366,0.125712
59.281505,-0.857901,0.112295,-1.208824
59.386290,0.687662,0.212969,-0.231348
59.491076,-0.118139,-0.763286,1.382836
59.595861,0.898615,0.747275,0.253274
59.700647,-1.248027,-1.395167,0.431427
59.805432,-0.867603,-0.514864,0.595150
59.910218,-0.284083,1.480950,0.949586
60.015003,-0.491803,-1.576020,0.161498
60.119789,-1.354898,1.772597,0.059028
60.224574,0.489312,-0.883042,0.191056
60.329360,-0.589138,-0.484479,0.980736
60.434145,-0.708307,-0.001379,-1.717302
60.538931,-0.259627,0.523959,1.875265
60.643716,0.375995,-0.398572,0.536329
60.748502,-0.602585,-0.134407,-0.647307
60.853286,-0.951292,0.347702,0.006029
60.958073,-0.445518,-0.635451,1.899041
61.062857,-0.084144,-0.085719,-1.398846
61.167644,0.706589,0.061608,0.758651
61.272428,-0.637419,0.331248,0.430127
61.377215,-0.645794,-0.454384,0.455770
61.481999,-0.299666,0.382653,0.742264
61.586786,-0.472266,-0.053917,1.554408
61.691570,0.803892,0.612312,-0.645902
61.796356,0.645231,-1.686382,0.294965
61.901141,-0.986085,0.576823,0.299726
62.005927,0.035805,-0.567592,-1.070282
62.110712,0.844476,-0.132458,1.892507
62.215498,-1.133871,-0.117412,0.572701
62.320283,-1.322978,-0.153133,-0.096899
62.425069,-0.121820,0.243257,0.180999
62.529854,0.184473,-0.417718,0.929978
62.634640,-0.736345,-0.014940,-0.177578
62.739425,-0.830793,0.145054,-0.148918
62.844211,-0.118496,-0.022166,1.474172
62.948996,-0.265942,-0.533093,2.092633
63.053782,0.801442,-0.185027,-3.321032
63.158567,0.388643,0.979530,1.562566
63.263353,-1.532909,-0.562751,0.474119
63.368138,0.080092,-1.504415,0.776935
63.472924,-1.125933,1.522557,0.936421
63.577709,-0.329722,-0.735057,0.953726
63.682495,0.152761,-0.176580,-0.811441
63.787280,-1.147207,0.432268,0.055192
63.892066,0.012746,-1.366808,0.835204
63.996851,-0.571169,1.046236,0.540480
64.101638,-0.199497,-0.889456,-0.433161
64.206422,-0.655834,-0.537200,-1.112787
64.311209,0.277973,0.399626,1.053242
64.415993,-1.261159,1.153671,4.291342
64.520780,-0.295063,0.047189,-2.630147
64.625564,-0.933896,0.142060,-0.569344
64.730351,0.211060,-0.835556,2.488926
64.835135,0.456253,-1.197623,-0.353220
64.939922,-1.654640,1.512912,-0.119136
65.044706,-0.885308,-1.399549,0.033254
65.149493,0.253902,0.206999,0.673865
65.254277,-0.639199,0.935655,-0.197889
65.359064,0.189189,-1.030013,1.246944
65.463848,-0.668214,-0.081126,0.190795
65.568635,1.073471,0.531975,0.415095
65.673419,-0.869328,-0.818407,1.240553
65.778206,0.063281,-0.576542,-1.145913
65.882991,-1.304291,0.737438,1.152005
65.987777,1.103265,-0.738384,0.088824
66.092562,-0.323320,-0.001532,-1.049891
66.197348,-1.323088,0.488987,1.734064
66.302133,0.151889,-0.766754,0.532385
66.406919,-0.275933,-0.912912,0.950113
66.511704,0.577074,1.258269,-2.921053
66.616490,-1.489482,-0.296382,2.394450
66.721275,-0.871017,-0.569478,-0.479120
66.826061,0.568150,0.461093,0.689063
66.930846,0.362854,-0.225125,0.861875
67.035632,-0.037258,0.502327,0.601204
67.140417,0.177552,-0.988984,-1.305329
67.245203,-0.242480,1.786930,-0.379795
67.349988,-0.609912,-0.591287,2.351448
67.454774,0.324006,-2.333930,-0.767241
67.559559,-0.108830,0.491057,0.552316
67.664345,-0.673394,0.441993,-0.012197
67.769130,-0.981175,-0.772216,1.875430
67.873916,-0.039808,-0.714653,-1.696845
67.978701,-0.529969,0.959598,2.114657
68.083487,-0.437609,0.243399,0.708496
68.188272,-0.172203,-2.323208,-0.085969
68.293058,0.020752,1.823856,-2.081202
68.397843,-0.673064,0.143113,2.922861
68.502630,1.081820,-1.398561,0.492305
68.607414,-0.403078,0.086494,-2.352367
68.712201,-0.211823,0.798730,1.132492
68.816985,-2.171846,-1.178014,0.443387
68.921772,-0.439483,-0.201149,1.066471
69.026556,-0.801180,0.357479,-0.873893
69.131343,0.213576,-0.457049,1.463385
69.236127,-0.651848,0.598224,-0.730104
69.340914,-0.286265,0.044716,-0.155106
69.445698,-0.716707,-1.236989,1.070067
69.550485,-0.829434,1.233274,1.090758
69.655270,0.514791,-0.911212,-0.475964
69.760056,-0.857559,0.607246,0.395518
69.864841,-0.738123,0.595320,0.814926
69.969627,-0.058682,-2.036653,0.026093
70.074412,-0.164963,1.413661,-1.279276
70.179198,0.447172,0.753850,1.717615
70.283983,-1.074251,-2.198373,1.188457
70.388769,0.118018,0.913840,-0.402635
70.493554,-0.609461,-0.125478,-0.474832
70.598340,0.179330,-0.098554,2.284595
70.703125,-1.162471,-0.403556,0.062185
70.807911,3.360018,-0.235062,0.902369
70.912696,-0.454906,0.603874,-1.960246
71.017482,-0.509351,-1.042753,0.727021
71.122267,-1.491339,1.533423,-2.543681
71.227053,0.167672,-1.640432,0.461733
71.331838,-0.862047,1.724977,0.332766
71.436624,2.192908,-0.805927,1.384901
71.541409,-0.643915,-0.029508,-0.938519
71.646195,-0.558768,0.413945,-0.274794
71.750980,0.823811,0.548187,-1.100474
71.855766,-0.784255,-0.769144,2.548277
71.960551,-1.152509,-1.168287,-1.471779
72.065337,0.292845,1.508191,-1.313790
72.170122,-1.517987,0.056771,-0.247866
72.274908,0.148585,-0.350126,-0.111113
72.379693,-0.496953,0.419592,1.665679
72.484480,1.251980,-1.059667,-2.205986
72.589264,-0.729385,1.284220,0.139496
72.694051,-0.406646,-0.471115,0.837132
72.798835,-0.258073,-0.250822,-1.776263
72.903622,-1.998427,-0.814738,2.485631
73.008406,0.021551,1.622528,-1.529617
73.113193,1.305758,1.560005,0.201246
73.217977,0.132637,-0.427708,-0.410717
73.322764,-1.161736,-0.560363,1.116750
73.427549,1.903786,-0.607090,-0.729913
73.532335,-0.870141,0.587917,0.356927
73.637120,0.779486,1.230857,0.838545
73.741906,-0.037231,-2.007142,0.364564
73.846691,-1.665943,1.737564,-2.206861
73.951477,-0.008799,-1.718992,0.718160
74.056262,0.562394,1.463859,-2.849111
74.161048,-1.469582,-1.319861,2.131123
74.265833,-2.436130,-1.644625,0.171042
74.370620,0.310975,2.091513,-0.255138
74.475404,0.455025,-3.486595,-2.313544
74.580191,-0.552189,3.283530,1.402979
74.684976,0.568815,-1.442907,2.824637
74.789762,-1.053002,0.597997,-3.056458
74.894547,0.063232,-0.287939,-0.479285
74.999333,-0.016543,-0.260625,-0.137411
75.104118,-2.461014,0.226530,-1.673244
75.208904,2.198349,0.175031,4.700549
75.313689,1.569593,-0.371620,-1.651920
75.418476,-1.062497,0.676938,-1.358850
75.523260,-0.193761,0.222640,2.263299
75.628047,0.585639,-2.803006,-0.871993
75.732831,-0.407893,1.924839,-1.866000
75.837618,0.667074,-0.110349,0.608659
75.942403,-0.356886,-1.495818,0.131663
76.047189,-1.934787,0.953011,1.203676
76.151974,1.931952,-0.266060,-0.354711
76.256761,-0.362913,0.650711,-2.003969
76.361545,0.244194,0.181384,0.207236
76.466332,0.283897,-2.768149,-0.250012
76.571117,0.132205,0.894000,0.334000
76.675903,-1.448234,2.099733,5.109442
76.780688,-3.030215,-2.984652,-2.005716
76.885474,2.443926,1.506100,-0.655968
76.990259,-0.704199,0.516475,-0.494521
77.095046,0.608665,-2.378332,-0.497240
77.199830,2.153952,-0.327753,-1.449297
77.304617,0.132844,0.897511,0.867118
77.409402,-0.722489,-2.387425,2.148883
77.514188,-0.998154,2.274081,1.718044
77.618973,-1.220998,-2.614963,2.168785
77.723760,0.545194,0.852979,-2.307970
77.828544,0.726341,0.245353,2.384785
77.933331,-1.082685,-0.237513,0.540340
78.038116,1.432653,-0.095918,-2.338966
78.142902,-1.205685,-1.289425,1.248850
78.247687,-0.760955,0.264101,0.840936
78.352474,-0.610991,-0.619069,-0.818854
78.457259,1.575391,0.266845,-0.283423
78.562045,-0.586088,0.416669,3.218466
78.666830,0.107456,-0.952226,1.175905
78.771616,0.024027,0.645778,-1.984380
78.876401,0.901467,-0.141471,1.311755
78.981188,-0.571154,-0.100053,0.968643
79.085973,0.585740,-0.977486,-0.186995
79.190759,-0.469616,0.163282,1.162386
79.295544,0.212885,-0.274886,-0.479643
79.400331,-0.147589,0.372551,-0.053840
79.505116,0.552454,0.289324,1.312222
79.609902,0.487919,-0.782768,0.284259
79.714687,-0.346236,0.211489,-0.851226
79.819474,-1.172882,0.302204,1.446329
79.924259,0.007154,-0.949797,-0.003825
80.029045,0.724260,1.182696,0.980798
80.133830,1.073952,-0.019629,0.647149
80.238617,0.738368,-1.233923,-0.938452
80.343402,-1.058447,0.175981,-0.870560
80.448188,-0.652595,0.323462,2.318306
80.552973,-1.057669,-1.060194,-1.884810
80.657760,0.517870,0.588240,0.557643
80.762545,0.685259,0.634606,0.912809
80.867331,1.334964,-1.371241,-0.192307
80.972116,-0.314069,1.234642,1.652346
81.076903,-2.127688,-2.579752,-0.504598
81.181688,-1.747768,3.516282,0.781970
81.286474,1.333705,-3.094938,-1.252908
81.391259,-0.415243,0.183987,-0.169828
81.496046,-2.781897,0.393915,-4.000574
81.600831,0.858558,-1.182403,2.727836
81.705618,-0.837338,-0.168801,0.463890
81.810403,0.735244,0.072278,-0.091084
81.915189,0.325645,0.253038,1.237788
82.019974,-1.257434,-0.822361,0.474808
82.124761,-0.128148,0.523954,0.969358
82.229546,0.331084,-1.503181,-2.359288
82.334333,-0.850571,1.742277,-0.867678
82.439118,0.120278,-0.691958,3.194597
82.543904,0.144120,-0.748677,-0.678757
82.648689,-1.662026,1.167974,-0.406073
82.753476,0.256843,-0.302424,-0.447732
82.858261,0.919920,-0.238497,-0.193097
82.963048,-0.683049,-0.072183,1.926324
83.067833,1.147717,-0.740255,0.665293
83.172619,-0.401406,-0.471162,0.269314
83.277404,-0.529581,-0.016219,1.040844
83.382191,-0.294873,-1.058348,1.805174
83.486976,0.209134,-0.202284,-2.333820
83.591763,0.271139,1.895370,1.067048
83.696548,1.107859,-0.745918,0.415991
83.801335,-1.108263,-0.576665,0.413510
83.906120,-1.105422,0.535524,1.685720
84.010906,0.864908,-0.437786,0.148664
84.115691,-0.312455,-0.100853,-0.460133
84.220478,-1.066759,0.154367,2.413150
84.325263,-0.217855,-1.034712,-0.043955
84.430050,1.040913,0.904787,-2.335367
84.534835,-0.357314,0.282681,2.001842
84.639622,-1.073886,-0.641829,1.128795
84.744407,-0.771419,-0.110444,0.545633
84.849194,0.053931,-0.692969,-2.283066
84.953979,0.008340,1.235344,1.376296
85.058765,0.749818,-1.138436,2.079009
85.163551,0.299889,-0.498059,0.183155
85.268337,-1.018673,-0.177581,0.035466
85.373122,-0.084050,0.531539,0.410078
85.477909,1.483169,0.031655,-0.089581
85.582694,-1.265978,-0.414548,0.608694
85.687481,-0.274550,-0.449565,0.942888
85.792266,-0.620259,-0.092917,1.757240
85.897053,1.013085,0.414149,-1.339972
86.001838,0.431694,0.012173,0.155035
86.106625,-0.010759,-0.900194,0.653098
86.211410,0.866489,-0.478045,2.823963
86.316197,-0.446216,0.155306,-1.156646
86.420982,-0.597595,0.039953,0.686615
86.525769,0.836192,0.070314,2.427886
86.630554,0.295503,-0.393962,-0.946263
86.735341,1.146841,0.734040,-1.263543
86.840126,0.001325,-0.975162,0.941706
86.944912,-1.214825,-0.171209,2.584838
87.049698,-0.068208,-0.954478,-0.941692
87.154484,-0.088778,0.574165,0.092727
87.259269,-0.019423,-0.778656,0.863652
87.364056,1.002353,0.510431,-0.776056
87.468841,0.158448,0.449592,-0.196838
87.573628,-1.166950,-0.380613,3.054894
87.678413,0.118882,-0.995244,-2.241059
87.783200,-0.060904,1.149301,0.641541
87.887985,0.025596,-1.628803,1.059258
87.992772,-1.539560,-0.574137,0.179950
88.097557,-0.714075,1.683921,0.392786
88.202344,1.596301,0.659806,2.360120
88.307129,-0.026637,-0.680719,-3.021202
88.411916,-0.771014,-0.677825,-1.238197
88.516701,-0.726006,-0.416465,3.181027
88.621488,1.112988,-1.632837,1.071734
88.726273,0.829504,1.987068,-1.938175
88.831060,-1.300196,-1.215960,1.512886
88.935845,-0.807610,-0.505706,-0.334863
89.040632,-1.252916,0.539092,0.733995
89.145417,-0.194915,-0.308558,1.325877
89.250204,-1.777102,-0.675449,-0.235106
89.354989,-0.201336,1.102625,0.703497
89.459776,0.394262,-1.134072,-1.025417
89.564561,0.772062,0.094410,0.607450
89.669348,0.441969,0.709775,0.792756
89.774134,0.063951,0.268485,1.307752
89.878920,-0.215718,-1.368827,-0.669532
89.983706,0.103760,0.448956,2.185417
90.088492,-0.582555,-0.918200,-1.426389
90.193278,-0.281116,0.041253,1.404745
90.298065,-0.487280,-0.245361,-0.088092
90.402850,-0.469533,-0.574002,0.363944
90.507637,-0.355319,0.903352,1.183387
90.612422,0.088603,-0.871325,-0.365641
90.717209,0.105193,1.026155,0.445428
90.821994,0.301961,-0.335356,-0.588037
90.926781,-0.644716,-0.756468,0.539255
91.031566,-0.333239,1.910382,1.150120
91.136353,0.279293,-2.403749,0.257893
91.241138,-0.665408,1.200774,1.109095
91.345925,1.735825,-0.092721,-1.050607
91.450710,-1.350641,-0.173600,1.281419
91.555497,0.064191,-0.530811,-0.704349
91.660282,-0.252766,-2.167143,-3.725096
91.765069,0.119549,3.937201,3.012478
91.869854,-0.902468,-3.315035,3.421510
91.974641,-0.331108,0.120942,-5.427932
92.079426,0.859214,1.601539,0.017927
92.184213,-0.117681,-1.660509,1.188317
92.288998,0.256757,0.473367,-0.803452
92.393785,-0.276207,-0.693936,1.248118
92.498570,-0.827285,-0.204317,1.333105
92.603357,-0.267066,0.177711,-1.423675
92.708142,0.617267,0.781469,-1.276968
92.812929,-0.535178,-0.072241,3.223240
92.917714,-0.917860,-1.416331,0.013788
93.022501,0.489165,0.329310,0.810690
93.127287,-0.598832,0.389541,-0.924299
93.232073,0.822517,0.312782,2.565567
93.336859,1.009827,-0.923725,-1.713191
93.441646,0.175654,0.265389,0.584743
93.546431,0.216097,0.055733,1.166025
93.651218,-0.762172,-0.815464,1.033221
93.756003,-0.393565,0.219057,-0.798018
93.860790,0.109362,-0.374339,0.495473
93.965575,-1.665476,0.563955,-0.574773
94.070362,0.154932,-0.149974,2.906405
94.175147,0.442193,-0.664941,-0.168812
94.279934,0.712892,0.192846,-0.320674
94.384719,-2.483316,-1.329048,-0.045607
94.489506,1.777764,1.415349,0.012378
94.594291,1.653849,-1.298455,-1.060295
94.699078,-1.548032,0.970784,2.181224
94.803863,-2.290735,-0.805052,-0.150368
94.908650,0.727352,0.219503,3.039964
95.013435,-0.531279,-0.830355,-1.040016
95.118222,0.203441,0.102770,-0.433725
95.223007,0.064585,0.187465,0.135980
95.327794,-2.402667,-1.085168,2.180776
95.432580,-1.432504,-0.332264,0.329741
95.537366,-0.575014,0.812227,-0.267798
95.642152,-0.332329,-0.226884,1.076982
95.746939,0.643728,0.213232,0.528850
95.851724,-0.874393,0.149263,-0.288693
95.956511,0.891397,-0.294109,-0.720124
96.061296,0.048633,0.560139,1.596845
96.166083,0.534745,-1.015816,0.286848
96.270868,-0.036832,0.671824,0.610981
96.375655,0.187329,-1.734185,-0.303867
96.480440,-0.031786,1.269909,1.523871
96.585227,-0.657978,-1.195044,1.783337
96.690012,0.628921,0.497535,0.108167
96.794799,0.840344,-0.218012,-0.519126
96.899585,-0.628078,-0.096394,0.933973
97.004371,2.181590,0.093841,-0.930253
97.109157,0.494227,-0.900285,2.021829
97.213944,-0.012787,1.193200,0.710325
97.318729,0.548108,-1.984126,-0.545767
97.423516,0.401446,-0.223112,-0.214752
97.528301,-0.648751,1.557320,1.109325
97.633088,0.686256,-1.080772,-0.406549
97.737873,-0.094751,0.968873,1.759807
97.842660,2.110290,-0.810393,0.247596
97.947446,1.581032,0.361137,-1.205758
98.052232,1.048491,0.004077,1.885286
98.157018,2.271097,0.815700,-0.757114
98.261805,2.450545,-0.015010,2.679054
98.366590,-0.710055,-0.127511,1.160433
98.471377,1.892970,3.321577,2.553185
98.576162,0.878047,-5.773224,-7.154813
98.680949,0.557843,-2.646677,6.293071
98.785734,1.845829,-0.435133,-0.102058
98.890521,3.774650,-2.584040,-5.835238
98.995307,0.415301,1.219975,3.470753
99.100094,-1.928159,-2.028047,1.658294
99.204879,1.551574,1.154752,-0.538706
99.309666,1.649001,0.438929,1.711571
99.414451,3.821232,-0.435455,0.423557
99.519238,0.687631,0.593703,0.711181
99.624023,1.037554,-0.352682,1.527100
99.728810,1.942117,0.405829,0.250476
99.833596,1.550092,0.352236,-1.052367
99.938383,2.270315,1.405171,1.863858
100.043168,0.552083,-1.485724,2.865005
100.147955,1.624360,0.024512,-0.323521
100.252740,1.484094,0.831291,0.930363
100.357527,1.412601,-1.178733,-1.064728
100.462312,1.958717,2.782408,1.959084
100.567099,1.337497,-1.245727,1.572960
100.671885,1.496735,-1.575001,1.128280
100.776672,3.182831,2.942845,-1.503090
100.881457,2.406943,-0.462038,5.301054
100.986244,0.749938,-1.022720,-2.341602
101.091029,0.493869,1.816942,-1.093402
101.195816,0.023100,0.821001,4.083028
101.300601,1.986629,-1.537994,-0.924840
101.405388,0.959376,-0.757205,2.088377
101.510174,0.165683,0.906742,0.372102
101.614961,0.454681,-2.106627,0.983434
101.719746,0.980263,1.459991,0.454521
101.824533,1.360402,0.022121,0.388853
101.929318,2.010364,-1.478796,1.636112
102.034105,-0.685089,1.465714,-0.414985
102.138891,-0.430478,-1.485149,0.533702
102.243678,-0.581821,-0.070926,1.724644
102.348463,0.183783,-0.288150,-0.095758
102.453250,-0.793675,0.282030,0.509164
102.558035,2.088033,-0.329234,0.239349
102.662822,-1.393954,-0.342678,1.001484
102.767607,-1.363903,-0.391094,0.825526
102.872394,0.573646,0.208204,0.346658
102.977180,-0.895861,0.328426,1.200279
103.081967,0.440601,0.085381,-0.066792
103.186752,0.541553,0.368359,2.035121
103.291539,-0.269797,-2.168094,-0.528320
103.396324,-0.723995,0.208672,0.611013
103.501111,-1.141971,-2.240825,-0.450952
103.605897,-1.067992,2.889301,-0.705457
103.710684,1.206158,0.258426,2.235631
103.815469,-1.075954,-2.590025,1.924055
103.920256,-1.021397,1.396593,-1.090150
104.025041,0.728500,-0.444222,1.279607
104.129828,-2.566488,-0.393830,0.654030
104.234614,1.061297,0.527503,-1.784757
104.339401,-0.624851,-1.076527,3.858422
104.444186,1.811790,0.591459,1.438917
104.548973,0.159666,-1.369866,-3.749931
104.653758,-0.211721,1.270203,2.078590
104.758545,-0.992562,-1.372391,0.203131
104.863331,-0.802418,-0.029797,2.094782
104.968118,-0.840404,0.416690,0.779255
105.072903,-0.693981,-0.977373,1.408672
105.177690,0.456021,0.267764,0.390389
105.282475,1.349711,0.266209,0.652869
105.387262,-0.311092,-0.877318,0.109487
105.492048,-1.472902,0.281416,1.055632
105.596835,0.476554,-0.894435,0.588894
105.701620,-0.002267,0.033291,0.265032
105.806407,-0.595223,0.593473,1.173883
105.911192,-0.910850,-1.943689,-0.544864
106.015979,-2.804464,1.760413,1.240889
106.120765,0.463668,-1.751032,0.786559
106.225552,-0.643907,-0.361039,1.538272
106.330337,-0.531814,1.021690,-0.854319
106.435124,-0.598738,0.068139,0.369719
106.539909,0.378479,-1.631819,0.934793
106.644696,-0.431057,1.561464,0.984884
106.749482,-0.340445,-3.593202,3.255142
106.854269,1.012633,1.925939,-0.327606
106.959054,-1.030964,1.030847,-1.924672
107.063841,-1.929775,-2.602666,0.310882
107.168627,-1.616755,0.416912,1.786049
107.273414,-0.068745,-0.015849,2.757444
107.378199,0.438219,0.092050,-6.015935
107.482986,-1.494439,-0.301804,3.428175
107.587772,-0.713021,-0.445471,3.083593
107.692559,0.947619,-0.802151,-1.874953
107.797344,1.790421,0.867557,0.500068
107.902131,-0.856851,-0.020959,2.955588
108.006917,-1.707336,-1.569598,-0.792401
108.111704,-0.883503,0.058976,0.001567
108.216489,-0.426287,-0.267830,-0.324992
108.321276,-1.104159,0.186806,2.404201
108.426062,-1.077660,-0.321666,-0.030132
108.530849,0.003226,0.146987,1.338869
108.635634,0.252244,-0.800811,1.290064
108.740421,-0.232971,0.194158,-2.524684
108.845207,-1.957537,0.382180,3.135687
108.949994,-0.289172,-0.524152,1.216140
109.054779,-0.273461,-0.849921,-0.030114
109.159566,-0.542252,-0.567959,-0.868810
109.264352,-1.782658,1.756079,2.608666
109.369139,-1.375981,-1.410621,0.533380
109.473924,-0.211716,0.554932,0.792648
109.578712,-0.297373,0.026790,1.061202
109.683497,0.079953,-1.015545,0.543729
109.788284,-0.360714,-0.537287,-2.488794
109.893070,-0.842311,1.262213,1.518946
109.997857,0.663951,-1.022379,2.775555
110.102642,0.186814,0.095378,-1.742107
110.207429,0.156179,-0.980677,1.534138
110.312215,-0.728334,0.877127,-0.171974
110.417002,0.063387,-2.242411,-0.987415
110.521787,0.419578,2.409022,0.447475
110.626575,-0.518878,-1.630029,1.755083
110.731360,-4.393390,-1.055653,3.105985
110.836147,0.879651,0.440287,-1.496175
110.940933,0.836778,0.048837,1.452652
111.045720,1.510682,-0.046017,0.434067
111.150505,-0.905039,-0.885377,-0.375456
111.255292,-0.335269,1.018715,0.714798
111.360078,0.301902,-0.899910,-0.367741
111.464865,-0.101222,-0.975017,2.053185
111.569650,-2.201353,1.218992,0.334400
111.674438,-0.533657,-1.819452,1.341178
111.779223,-0.857584,-0.101505,-1.354418
111.884010,1.191698,1.979163,-0.747720
111.988796,-1.572354,-1.500848,1.761921
112.093583,-0.862487,-0.198150,3.096584
112.198369,-1.231953,-0.030075,-1.622501
112.303156,-0.720374,-0.133466,0.890585
112.407941,-1.131238,-0.441474,1.958184
112.512729,-1.115413,0.415980,0.508420
112.617514,0.783372,-1.244711,-1.395139
112.722301,-0.942329,0.608580,2.593944
112.827087,0.704491,-0.095200,-0.300640
112.931874,-0.564125,0.636225,1.587637
113.036660,-0.509990,-1.477538,-0.478881
113.141447,-2.077950,0.381008,-0.546690
113.246233,-0.713387,-1.081133,2.249093
113.351020,2.065505,0.030222,2.519530
113.455806,0.075949,-0.290399,-4.087382
113.560593,-0.112336,-0.364932,2.864944
113.665379,0.062198,0.079157,0.767211
113.770166,-1.178059,1.480324,1.697369
113.874952,-0.314143,-2.016856,0.670544
113.979739,-1.267457,-0.379761,-0.439799
114.084525,-1.197389,0.166522,1.251225
114.189312,-0.456601,-0.898943,0.813376
114.294098,0.154031,1.042348,-1.588445
114.398885,-1.173043,-0.480729,1.830289
114.503670,0.095254,0.027522,2.210049
114.608458,-0.706913,1.756273,1.821960
114.713243,0.052712,-0.645816,-3.370160
114.818031,-0.170518,-0.480458,2.548439
114.922816,0.469356,-1.195126,0.984741
115.027604,1.062739,-0.896374,0.215118
115.132389,-4.473667,-1.003175,0.037290
115.237177,0.446845,-1.177563,-2.052748
115.341962,-1.632651,-0.606559,0.927474
115.446750,-1.211624,-0.466453,1.161997
115.551535,-0.623713,0.232713,-0.702830
115.656323,-0.315254,-0.313929,4.086383
115.761108,-1.293378,0.411665,0.365150
115.865896,2.761542,2.088475,-1.502431
115.970681,-1.207755,0.063951,-0.983952
116.075469,1.519757,-0.813326,2.111675
116.180254,-0.236545,-0.162347,0.910403
116.285042,-0.185480,-0.625243,-0.046650
116.389828,-1.354367,-0.338442,1.920250
116.494615,1.002338,-0.307587,-0.202831
116.599401,-1.483439,0.019080,1.304912
116.704188,-0.434041,-0.020241,-0.083020
116.808974,-0.068129,0.195645,1.161871
116.913761,0.027022,-1.163882,-0.267564
117.018547,-1.535113,0.361817,1.219981
117.123334,-0.046349,-0.450851,0.403525
117.228120,-0.553166,-0.120855,1.323508
117.332907,0.833521,-0.773335,-1.201758
117.437693,-1.453927,0.670142,1.839304
117.542480,-0.285667,-0.146001,0.684238
117.647266,-0.786010,-0.888307,0.578150
117.752053,-0.030065,0.071625,0.664512
117.856839,-2.232265,0.308296,0.901444
117.961626,-0.834666,-0.610681,0.681029
118.066412,-1.361584,0.119439,0.350339
118.171199,0.747494,-0.837674,0.787964
118.275985,-2.600270,0.633933,2.150771
118.380772,-0.578364,-0.365981,-0.521669
118.485558,0.399570,0.102929,-0.117850
118.590345,0.527235,-0.452894,0.381157
118.695131,-2.254685,-0.003698,0.279563
118.799919,-0.040662,-0.572890,0.896166
118.904704,0.411160,-0.220472,-1.163168
119.009492,-1.023788,0.503320,2.398840
119.114277,-1.478272,-0.731717,-1.215838
119.219065,-0.320535,0.796731,2.019252
119.323850,0.341738,-0.631071,-0.901987
119.428638,-0.998569,-1.214243,1.344638
119.533423,-1.309243,1.178160,-0.616099
119.638211,0.451822,-0.051050,2.009039
119.742997,1.135540,-0.532150,-1.059220
119.847784,0.121660,0.270451,-1.012895
119.952570,-1.437632,0.418893,2.910040
120.057357,0.593166,-1.457125,0.820322
120.162143,-0.232381,1.112095,-0.718750
120.266930,1.320060,-0.376387,1.035600
120.371716,-0.802751,-0.634388,-1.335479
120.476503,-0.017654,0.795262,2.082293
120.581289,0.273243,-1.378811,-1.027680
120.686076,-1.216578,0.394846,2.077029
120.790862,-0.458597,0.167315,0.714085
120.895649,-0.420476,-1.456177,1.367855
121.000435,0.451445,0.301138,-3.295158
121.105223,-0.784452,1.634999,2.143544
121.210008,1.193380,-2.258309,0.723448
121.314796,1.197645,0.786976,0.449638
121.419581,-0.118655,-0.035559,0.304816
121.524369,-1.673024,-0.809456,-0.222076
121.629154,-0.465044,-0.322486,-0.684981
121.733942,-1.484735,0.386282,2.723584
121.838728,-0.214442,-0.867177,0.283949
121.943515,-0.893507,0.359852,-0.068861
122.048301,-0.169889,1.228716,2.028065
122.153088,0.492224,-1.250268,-0.923240
122.257874,-1.782269,0.483095,1.043958
122.362661,-0.426009,-1.735108,-0.761691
122.467447,0.207238,1.342996,1.673706
122.572234,0.680559,-0.064108,-0.639070
122.677020,-0.246011,-0.410857,0.486529
122.781807,-1.217920,0.301405,1.263044
122.886593,0.252259,-0.837079,0.161346
122.991381,-1.206345,-0.071790,0.839561
123.096166,-0.844953,-0.994117,1.404435
123.200954,-1.765440,0.487719,0.234082
123.305739,1.141014,-0.348401,-0.302529
123.410527,-1.380284,-0.467991,0.503305
123.515313,-0.711485,0.968171,-0.125040
123.620100,-0.247328,-0.831035,-0.661955
123.724886,-0.571312,0.204075,3.077181
123.829673,-0.448646,-0.104325,-0.595883
123.934459,-0.540643,-0.158424,-0.434219
124.039246,-0.703897,0.364831,1.184148
124.144032,-0.408859,-0.821205,0.109459
124.248819,-1.568308,0.809707,1.938645
124.353605,-0.917170,-0.988817,0.013395
124.458393,-0.649914,-0.114782,-0.215806
124.563178,0.439082,0.206059,1.844987
124.667966,0.286613,0.226772,-0.425857
124.772752,-0.867546,-0.588862,-0.423625
124.877539,-1.341167,-0.478375,0.205602
124.982325,-0.114911,0.767665,2.300667
125.087112,-0.826195,-0.375611,-2.075833
125.191898,1.112876,-0.271683,-0.971864
125.296685,-0.275039,0.319248,1.061060
125.401471,-1.162969,-1.787306,1.207841
125.506259,-1.487059,1.031386,-0.263353
125.611044,0.975376,-0.913747,0.073532
125.715832,0.116925,0.991861,0.526201
125.820618,-0.844355,-0.779725,-0.820276
125.925405,-0.791847,-0.146661,2.544604
126.030191,-0.226736,-0.890337,-1.554719
126.134978,-0.722709,1.063196,1.235751
126.239764,0.160449,-0.527320,0.774125
126.344552,0.894911,-0.058368,0.408238
126.449338,-1.001979,-0.327673,0.068734
126.554125,-2.167459,-0.629513,1.350743
126.658911,0.504817,0.595047,0.695462
126.763698,-0.566603,-0.402843,0.659935
126.868484,1.080449,-0.021114,-0.992010
126.973272,-1.671440,-0.566278,1.882127
127.078058,-1.247511,-0.177941,1.287704
127.182845,-0.846934,-0.329991,-1.084533
127.287631,0.625550,0.533660,0.737131
127.392418,0.565131,-0.089823,1.318014
127.497204,0.299097,-0.648310,0.152010
127.601992,-1.387098,0.108095,0.297314
127.706778,-0.884916,-0.519719,1.213528
127.811565,-1.191787,-0.545222,-0.542369
127.916351,-1.525800,-0.202522,0.787950
128.021139,0.170996,0.292419,1.392153
128.125925,-0.650801,-0.371684,-3.451812
128.230712,-1.766773,0.166355,4.898107
128.335498,1.106792,0.691508,-1.343897
128.440286,-1.677130,-0.714310,0.624839
128.545072,-1.548041,0.297900,0.564693
128.649859,-0.553366,-1.157559,-0.297474
128.754645,-1.242220,-0.348221,2.521019
128.859433,-1.463811,-0.014412,-0.808220
128.964219,-0.711250,0.721387,-2.174738
129.069006,-0.975040,0.289785,1.006925
129.173792,-1.686207,-0.321928,2.365024
129.278580,-2.305083,-0.282344,-1.228281
129.383366,-0.340370,-0.521221,2.114101
129.488153,-1.004622,0.057199,0.050517
129.592939,-3.066703,-0.747485,-0.231180
129.697727,-0.367761,1.369899,0.103320
129.802513,-0.602246,-0.412657,0.950084
129.907301,-1.702071,0.363001,-2.752620
130.012087,-2.170776,-1.769221,3.238144
130.116874,-2.473408,0.992080,-1.642675
130.221660,-2.710221,-0.277482,-0.162338
130.326448,-0.781036,-0.162796,-0.138181
130.431234,-0.694944,0.781507,0.435656
130.536022,-1.702501,0.495443,2.734335
130.640807,-3.522065,1.050555,-0.835633
130.745595,-1.874275,-1.684475,0.622746
130.850381,-1.067829,2.712883,-0.765405
130.955169,-0.689639,-0.894829,0.097060
131.059955,0.876145,-0.405996,0.132027
131.164743,-3.153356,0.326092,0.703484
131.269528,-2.955543,-1.065217,-0.015967
131.374316,-2.397749,0.488278,1.167132
131.479102,-2.549521,1.646409,0.511590
131.583890,-1.232388,0.635859,0.258335
131.688676,-1.996060,0.494444,0.428543
131.793464,-0.561058,-0.450730,-1.250524
131.898250,0.949283,-0.878318,-3.240358
132.003037,-1.679065,-1.829910,5.084179
132.107823,-2.106489,1.220743,0.549022
132.212611,0.149174,-0.994472,0.594402
132.317397,-0.880693,2.357102,-5.063093
132.422185,-0.569641,-2.143080,3.056493
132.526971,0.562330,-1.257244,-3.261924
132.631759,-2.835297,-1.046822,-0.924843
132.736545,-1.162874,1.627486,2.212823
132.841332,-0.961760,-0.075521,0.736935
132.946118,-1.882416,0.361117,-0.866071
133.050906,0.561794,1.279666,0.954732
133.155692,-1.529609,-0.845492,-0.944489
133.260480,-0.997866,0.153760,-0.864030
133.365266,-0.079237,0.999066,1.161811
133.470054,-1.800712,-2.029648,0.145156
133.574840,-0.406773,1.496780,0.660898
133.679628,-0.842206,2.377100,5.433006
133.784414,2.082571,-4.596030,-1.348405
133.889201,0.160616,4.282595,-3.508789
133.993988,0.916548,-2.232931,2.884266
134.098775,-0.409353,-0.562887,0.854114
134.203561,-0.167466,-0.678012,0.309689
134.308349,0.593165,-0.809313,0.196462
134.413135,-2.453393,-1.419438,1.906178
134.517923,0.454436,0.704267,-0.385454
134.622709,2.006693,0.441491,-0.520366
134.727497,-0.240768,0.031454,1.987495
134.832283,-0.439491,-0.703997,0.137283
134.937071,-1.080916,-1.182897,-1.866039
135.041857,-1.311670,1.347351,-0.101635
135.146645,1.364871,-0.919941,2.471371
135.251431,-0.783428,-0.292153,0.096494
135.356219,-0.264082,-0.271207,0.881596
135.461005,-0.981296,-0.426873,-1.739252
135.565793,-0.071375,2.129646,2.105528
135.670579,1.382544,-1.048081,-0.313869
135.775367,-1.388771,-1.670286,-0.207147
135.880153,-0.450373,0.472485,-1.537220
135.984941,0.352840,-0.602096,0.722768
136.089727,0.114798,-2.901391,-0.788294
136.194514,-0.381935,0.121727,-1.573921
136.299301,-2.052260,8.994411,4.329762
136.404088,0.696667,-9.416440,-1.942857
136.508875,0.603428,-1.634905,1.153601
136.613663,-0.038103,3.242909,2.441510
136.718449,-3.544075,-3.933454,-4.529022
136.823237,3.504045,1.274739,0.156145
136.928023,-1.749877,-0.219542,-1.270604
137.032811,1.648311,0.154557,1.102424
137.137597,-1.742998,0.131227,0.019531
137.242385,1.415751,-0.055885,0.519775
137.347171,1.969220,-0.017070,1.194227
137.451959,1.182513,-0.586599,0.429452
137.556745,-1.072854,-0.436037,-1.034621
137.661533,0.462102,-0.326689,-0.519207
137.766319,-0.818251,-0.103027,0.868459
137.871107,-0.221478,0.174150,-0.770104
137.975893,2.177470,1.113147,-0.809034
138.080681,0.472808,-1.485521,1.690906
138.185467,0.225333,0.349634,-0.466979
138.290255,-0.406065,-0.406748,-0.072357
138.395041,0.209426,0.219654,-0.106029
138.499829,-0.210514,-0.125049,0.519548
138.604615,0.230615,-0.353494,-0.375728
138.709403,0.586892,0.312996,0.157437
138.814189,0.346526,-0.173175,0.038454
138.918977,-0.353760,-1.973667,-1.847644
139.023763,2.007415,3.025427,7.630457
139.128551,-0.185157,-3.740367,-8.299855
139.233337,0.584651,4.800256,-8.575332
139.338125,-2.658525,-7.164671,10.757020
139.442912,0.225847,-1.261083,-1.912606
139.547699,3.157552,-2.102909,-0.955879
139.652486,-0.305876,1.348027,-2.367870
139.757273,0.099830,0.427763,1.287876
139.862060,1.969093,-2.288947,-0.738422
139.966848,-0.918649,0.055685,-0.074113
140.071634,0.126227,-1.437793,0.616110
140.176422,0.829325,1.785861,-0.419385
140.281208,2.487049,-0.981793,1.067561
140.385996,-0.269868,-0.127256,0.130601
140.490782,0.573468,0.223887,0.267178
140.595570,1.944323,-0.657276,-0.546583
140.700356,0.922667,0.969974,0.493446
140.805144,0.999981,-1.730740,-1.874773
140.909930,0.966656,-1.546274,-0.451222
141.014718,1.205626,0.208403,-0.464125
141.119504,-0.139489,-0.919834,6.995000
141.224292,-0.381803,1.101424,-2.653664
141.329078,0.572026,1.349877,-3.872417
141.433866,0.302454,0.919593,-0.199377
141.538653,1.693211,-1.127297,2.280209
141.643441,-2.724805,-1.258833,-1.984904
141.748227,0.533755,1.228612,1.594795
141.853015,-0.531353,0.081575,-1.209803
141.957801,-1.420043,-1.440377,-2.650458
142.062589,0.348294,2.489111,3.315579
142.167375,-0.940488,-1.079260,0.944427
142.272163,0.551726,0.102881,-0.756693
142.376949,0.963459,0.654417,0.619597
142.481737,-0.284517,0.631130,-0.500085
142.586523,-1.658535,-1.190635,0.355657
142.691311,0.982196,1.352678,-1.436114
142.796098,-0.418463,-0.411339,1.384580
142.900886,0.778836,-1.033254,0.139972
143.005672,0.421151,0.422244,0.187195
143.110460,-0.708885,-0.919992,-1.585350
143.215246,-1.077169,-0.471230,0.670878
143.320034,0.703960,1.171352,1.125504
143.424820,1.244126,0.712343,-1.662655
143.529608,0.997614,-1.844404,1.652097
143.634394,-1.002491,0.521306,-0.069866
143.739182,1.326891,0.555122,0.682058
143.843969,0.565265,0.339138,-0.431585
143.948757,1.395483,0.503647,-1.390878
144.053543,-1.216181,-2.061947,2.618893
144.158331,-1.954094,-0.261573,-1.204230
144.263117,-0.673279,0.866254,0.297266
144.367905,0.117602,-0.701113,-1.298559
144.472691,-0.979726,2.743474,3.154035
144.577479,1.672220,-2.171769,-0.977774
144.682266,0.109957,0.342805,2.195987
144.787054,0.194306,0.534099,-3.402688
144.891840,-0.478261,-0.120745,3.854191
144.996628,0.272173,-1.871737,-3.940023
145.101414,0.005214,0.510556,-0.080748
145.206202,-0.252680,-0.326034,-5.375838
145.310988,-0.125232,1.575497,2.274077
145.415776,1.410313,-1.968921,3.556939
145.520563,0.852135,-0.192912,-3.260499
145.625351,0.239205,-0.405349,-0.004221
145.730137,1.754557,-0.097250,-2.173442
145.834925,0.191062,-0.341688,4.498338
145.939711,0.448078,-0.444456,-3.632802
146.044499,1.665585,-0.705032,-2.842172
146.149286,-0.781082,-0.158540,3.649493
146.254074,-0.945787,0.561407,0.758381
146.358860,0.698897,1.281995,0.806947
146.463648,-2.088082,-0.067988,-0.337544
146.568434,-0.286109,-1.454769,0.179074
146.673222,0.440360,-0.091184,1.769014
146.778009,-0.653799,0.146843,-0.421452
146.882797,-1.081270,-1.150327,-2.465773
146.987583,-0.868003,1.145363,2.514226
147.092371,0.783379,-0.174210,1.879228
147.197157,-0.843807,-2.394350,-5.654183
147.301946,-1.087582,2.054701,1.450367
147.406732,-0.033058,0.409008,2.379182
147.511520,-0.089286,-0.848755,-0.193078
147.616306,-1.333694,-0.794101,-2.037338
147.721094,-1.699242,0.727194,4.942202
147.825881,-0.411102,-2.962173,-1.001084
147.930669,-0.138164,0.438381,-3.505630
148.035455,0.043639,1.047223,0.282069
148.140243,-0.392899,-0.429762,-2.270492
148.245030,1.605674,-1.322840,0.450779
148.349818,-0.911277,0.867129,1.245872
148.454604,0.030389,-0.499547,-4.416397
148.559392,0.989799,0.134142,0.808647
148.664179,-3.343621,1.712364,1.882236
148.768967,0.731742,-1.387458,-1.899432
148.873753,2.276142,-1.597079,-0.354830
148.978541,-1.378318,1.855220,-0.889796
149.083328,-0.426327,0.191045,1.512418
149.188116,-0.996704,-3.380780,0.798388
149.292902,0.655301,3.468745,-2.818698
149.397690,-0.671948,-1.883436,2.034667
149.502477,0.244546,-0.531927,-3.334064
149.607265,-0.281406,-0.492685,-1.841585
149.712051,0.692955,0.960439,0.024491
149.816839,0.525366,-0.788450,1.136325
149.921626,0.381158,-1.019327,0.077595
150.026414,0.343242,2.247124,-0.526647
150.131200,0.545717,-1.572964,3.221340
150.235989,-0.706819,-0.603554,1.804485
150.340775,-0.788326,0.402736,1.622120
150.445563,0.361043,-2.040310,-0.597354
150.550350,1.074417,0.470482,-3.583832
150.655138,1.335851,0.673407,1.970319
150.759924,1.644325,-1.102148,2.408444
150.864712,1.167141,1.838136,-0.666285
150.969499,1.940824,-3.082557,0.473237
151.074287,0.771351,1.604597,0.058707
151.179073,-0.127061,-0.737095,1.979455
151.283861,0.684104,-0.741479,-1.277639
151.388648,0.695925,1.592649,1.548472
151.493436,-1.142473,-1.391141,1.454406
151.598223,2.341599,-0.597564,-1.826853
151.703011,-0.343256,-0.268259,3.324652
151.807797,-1.246323,0.652421,-1.949228
151.912585,-0.429883,0.243853,1.597823
152.017372,0.225737,-1.029102,-1.092303
152.122160,0.226787,0.115379,1.814402
152.226947,0.169189,-2.302625,1.686851
152.331735,0.410274,1.018455,0.315204
152.436521,0.625724,1.285119,2.333454
152.541309,0.428059,-1.453643,-1.339155
152.646096,-0.529931,-0.989231,-0.690162
152.750884,-1.101248,1.853466,-0.420949
152.855671,-0.551632,-0.379366,-0.061252
152.960459,0.262950,-1.937845,0.236056
153.065245,-0.940702,1.761051,-0.540837
153.170034,0.087543,-1.671450,-0.178191
153.274820,-0.474190,0.985301,0.526580
153.379608,0.191434,-0.815427,-0.742414
153.484395,-0.851134,-0.446709,-1.473384
153.589183,0.336937,-0.009897,0.707202
153.693970,-0.410056,0.259835,-3.090342
153.798758,-1.207485,0.542315,1.110236
153.903544,0.545344,-1.216346,0.762439
154.008333,-0.722892,0.518228,0.392422
154.113119,-0.548934,-0.026955,0.061350
154.217908,0.282463,-1.519177,-1.088122
154.322694,-0.306412,1.548682,2.487435
154.427482,-1.010616,-2.154435,0.459170
154.532269,1.567256,-0.434555,-2.742376
154.637057,-1.825808,2.781797,0.886501
154.741844,2.166197,-2.608030,1.273294
154.846632,0.150195,1.532277,-0.368315
154.951418,0.975517,-2.578504,-4.752701
155.056207,-1.324727,1.344582,2.400441
155.160993,-0.418850,-1.398340,0.731365
155.265782,-1.219469,1.627677,-2.191225
155.370568,-0.501582,-2.723641,1.324274
155.475356,-1.261847,2.320017,0.191004
155.580143,0.709221,-0.343187,0.701876
155.684931,1.832957,-1.022447,-0.233479
155.789718,0.674970,1.107721,0.764434
155.894506,-0.414907,-0.708789,1.263367
155.999293,0.702575,-0.826553,-1.553383
156.104081,-1.628049,-0.976001,0.614857
156.208868,-1.534446,0.574899,1.965720
156.313656,0.433774,-0.126689,-2.704452
156.418443,0.130523,0.260147,1.460139
156.523231,1.307239,-0.573495,-0.766799
156.628017,-0.340111,0.665104,-1.006987
156.732806,-0.717961,-1.572138,1.645315
156.837592,0.372184,-0.026021,-2.109013
156.942381,-0.383831,1.474237,1.079059
157.047167,1.038457,-1.217770,-1.771024
157.151956,0.284059,1.560437,2.314965
157.256742,2.010145,-4.014890,-4.598608
157.361530,-2.303127,2.610867,-0.731630
157.466317,-0.447389,0.315983,3.532580
157.571105,0.939390,-1.959809,-1.309716
157.675892,-1.862702,1.336999,1.966035
157.780680,0.134442,-0.810494,-0.674104
157.885467,0.123717,2.936563,-2.869830
157.990255,-0.679378,-3.569140,1.803413
158.095042,-0.269253,-0.696152,0.740393
158.199830,-0.230904,-0.311695,0.438481
158.304617,2.694854,-1.259451,-4.048409
158.409405,-2.796080,1.993944,-0.090227
158.514192,2.754699,-2.269417,1.423456
158.618980,0.690976,1.097759,-4.414457
158.723767,-0.389057,-0.520868,3.800143
158.828555,0.482808,-0.415466,1.165931
158.933342,0.198295,0.328743,-2.000008
159.038130,1.185538,-1.183309,1.074325
159.142917,-1.267456,0.752756,1.139812
159.247705,-0.956191,-0.207758,0.176213
159.352492,-1.030609,-1.131182,0.600847
159.457280,-1.213203,-0.033300,-1.406164
159.562067,0.324549,0.783144,0.945107
159.666855,0.928856,-2.804717,0.730839
159.771642,-0.545756,1.473642,-4.960528
159.876430,-0.373673,0.152487,2.518016
159.981217,0.579424,0.894633,-0.581269
160.086005,-1.066741,-0.201862,4.303676
160.190792,0.442975,-1.336862,-1.361156
160.295581,0.645317,1.813739,2.002091
160.400367,1.381669,-2.102618,-1.674229
160.505156,-0.558575,-0.601930,-3.672585
160.609942,-1.274335,0.756185,4.401957
160.714731,-0.738409,-0.500280,0.669455
160.819517,-0.793189,-0.575782,-1.560152
160.924306,-0.532206,0.561711,0.585995
161.029092,0.005038,0.711346,0.098000
161.133881,1.184685,-3.161397,-0.738349
161.238667,-1.501256,2.023140,1.417613
161.343456,1.132850,-0.984988,0.956563
161.448243,-1.114374,-0.337723,-0.605940
161.553031,2.186177,2.401345,0.213798
161.657818,0.350552,-2.277129,0.736804
161.762606,0.498225,0.658156,-0.671413
161.867393,0.112464,-1.054054,0.662438
161.972181,-0.326693,-0.171682,-3.099414
162.076968,-0.053401,1.151827,0.630022
162.181757,-1.135926,0.025318,0.495322
162.286543,1.378687,-1.440543,-3.957191
162.391332,-0.606949,-0.589931,-0.347127
162.496119,-0.125298,0.531591,2.446866
162.600907,-0.165461,-0.456604,0.645057
162.705694,0.017745,-0.377176,-2.917090
162.810482,0.373239,-1.134093,-3.629333
162.915269,0.229980,2.040862,-3.013419
163.020058,-1.185410,-1.998066,-1.054744
163.124845,0.228822,-5.134727,2.765333
163.229633,0.302125,8.213792,-3.844942
163.334420,-0.307238,-3.755710,0.445609
163.439209,-0.301660,0.057197,-1.679488
163.543995,-1.518810,-2.711319,1.656926
163.648784,-0.833881,1.287339,0.656649
163.753571,0.337036,-1.625528,2.482340
163.858359,1.783786,-0.948518,-10.561360
163.963146,-1.068915,2.168961,0.427432
164.067935,-1.754325,-1.923483,4.819438
164.172722,0.562308,-0.146829,-4.360137
164.277510,0.057629,-0.563092,-0.728010
164.382297,0.914857,-2.314958,-2.041901
164.487086,-1.081942,0.542952,0.398353
164.591873,0.465832,-0.683299,2.293262
164.696661,-1.522792,3.741900,-0.503569
164.801448,0.638619,-3.748219,0.745002
164.906237,0.637023,3.655835,-0.236602
165.011024,0.395738,-1.424159,1.425663
165.115813,-1.162712,-0.358767,-3.434232
165.220599,0.127982,0.844684,1.409955
165.325388,-0.787731,0.037525,1.252870
165.430175,3.184797,-0.577553,0.404233
165.534964,-0.291248,-1.892857,-0.933336
165.639751,0.270683,1.715311,1.655146
165.744539,0.209508,-0.410649,-0.683987
165.849326,0.635467,-1.567035,-0.197673
165.954115,-1.625258,2.361979,1.610598
166.058902,-0.279889,-2.121348,-0.325380
166.163691,1.992165,0.009369,-0.672182
166.268478,-0.145332,0.755834,-0.910856
166.373266,-0.616793,-0.660499,-1.025711
166.478053,-1.201205,-0.015320,2.091894
166.582842,2.162400,-1.366055,0.514914
166.687629,-0.886645,1.148600,-1.282664
166.792418,1.105444,-0.951361,-0.149307
166.897205,0.100601,0.220407,-0.140087
167.001993,0.903629,-0.227732,-0.102652
167.106780,0.802563,0.693709,0.198175
167.211569,-1.048508,0.690228,1.684882
167.316356,-0.647055,-0.724180,-0.630673
167.421145,1.175854,-0.722435,1.191161
167.525932,0.691277,0.215456,1.100653
167.630720,-0.891280,-3.647588,2.449902
167.735507,-1.332129,2.067263,-4.836621
167.840296,0.750155,0.762179,0.873882
167.945083,0.999011,-1.132691,1.378334
168.049872,-1.744319,-0.014544,1.373147
168.154659,-0.257564,-1.543389,-3.175765
168.259448,0.080468,2.691664,1.245657
168.364235,0.931811,-1.220418,2.891473
168.469024,-0.121011,-1.637283,-1.892597
168.573811,-1.305073,1.909961,-1.732670
168.678599,0.415987,-1.273516,-0.303973
168.783386,-0.855719,-0.154895,2.039713
168.888175,1.036614,0.363867,-2.188441
168.992962,-1.462836,-1.263318,-0.963534
169.097751,0.868803,0.146375,-2.300868
169.202538,-1.412167,0.897313,-3.121971
169.307327,0.368897,-0.994506,5.483673
169.412114,-2.139911,0.377194,0.849476
169.516903,2.389296,-0.727900,-1.231302
169.621690,-1.557437,0.061766,0.340802
169.726479,-0.528753,-0.208895,-1.031391
169.831266,-2.685085,0.631594,2.299201
169.936055,1.097444,-1.878254,-0.692249
170.040842,-0.501308,-0.452999,-1.867854
170.145631,-1.840820,1.237145,1.183411
170.250418,-0.406650,0.705654,-0.556180
170.355207,2.231232,-2.157107,-1.998045
170.459994,-0.617134,0.213345,-2.402092
170.564783,-0.330732,0.484471,2.065923
170.669570,-1.250447,0.395104,0.325636
170.774359,-0.038707,-2.211806,-1.560566
170.879146,-0.815087,1.371719,1.749229
170.983935,-0.693704,-0.173758,-0.268921
171.088722,-1.092946,-0.975182,1.754493
171.193511,0.427494,0.268994,-0.319918
171.298298,-0.370608,-2.091068,-7.665700
171.403087,-2.725091,2.687903,3.223049
171.507874,2.572433,-1.886330,-0.119195
171.612663,-2.896181,2.456441,-1.392942
171.717451,1.528189,-1.344676,1.276139
171.822239,0.150140,-0.978120,2.860196
171.927027,0.845329,0.209582,-3.905037
172.031816,-1.904511,-0.987380,1.398969
172.136603,-2.150528,0.712849,0.617870
172.241392,1.734252,-1.764672,-1.299585
172.346179,0.479758,0.852416,-1.832579
172.450968,0.014377,-1.198819,-1.581975
172.555755,-1.658078,0.562742,-0.261699
172.660544,-1.221424,1.768898,0.027116
172.765331,1.921175,-3.689954,2.155934
172.870120,-1.991246,3.643216,0.481530
172.974907,2.383550,-3.425978,-2.063610
173.079696,-1.083143,0.793133,0.794799
173.184484,1.129026,0.277589,-0.837362
173.289273,-1.067608,0.304403,1.625701
173.394060,0.045349,-1.356324,1.854751
173.498849,-0.433200,0.030460,-0.334422
173.603636,-1.203958,1.146159,0.031520
173.708425,4.072237,-0.783543,1.940226
173.813212,-1.549844,-2.838115,0.071882
173.918001,-0.052521,1.941985,-2.154715
174.022788,1.546735,-3.139171,-0.529982
174.127577,-2.778875,1.637099,0.767504
174.232365,2.547961,-0.584375,-2.458025
174.337154,-1.507131,0.700641,0.285453
174.441941,-1.396371,-0.311227,-1.286752
174.546730,1.229020,1.970137,4.914667
174.651517,-1.619909,-1.847840,1.427626
174.756306,0.309037,1.204050,-2.892629
174.861093,1.878719,-0.880349,0.672040
174.965882,-0.037609,-2.739294,1.497605
175.070670,-0.135515,0.793660,-0.546215
175.175459,-0.202506,-0.340377,0.963644
175.280246,1.280013,-1.670003,0.761184
175.385035,-0.224016,0.617156,0.218839
175.489822,-0.878813,-0.192338,-1.615038
175.594611,-0.754283,-0.693316,1.258091
175.699398,0.173745,-1.287375,0.135235
175.804187,-1.136787,2.001818,-2.475544
175.908975,0.777272,-1.656844,2.528776
176.013764,-1.088259,1.367332,0.931842
176.118551,0.574566,-1.196983,-0.666729
176.223340,0.106626,-0.884070,-1.181574
176.328127,-0.062439,0.650280,-0.421230
176.432916,-1.523417,0.329744,0.796322
176.537704,0.718671,-1.359669,-3.091945
176.642493,-2.671170,0.791950,3.066772
176.747280,0.348129,-0.090734,1.682369
176.852069,-1.012555,-1.792834,-2.351729
176.956857,-0.514458,1.502456,-1.553803
177.061646,1.314061,-2.338829,0.633960
177.166433,-2.026246,1.115555,-0.068655
177.271222,-0.120267,-1.346140,0.484146
177.376009,-0.361298,1.750331,-0.739777
177.480798,-1.532520,-2.091258,1.828255
177.585586,0.521194,1.908345,-2.305599
177.690375,-0.814445,-1.323915,-0.211272
177.795162,-0.399177,0.635242,-1.577783
177.899951,0.652809,-1.627221,2.697955
178.004738,-0.263804,2.086671,-2.254549
178.109528,-0.140856,-1.909362,0.610332
178.214315,0.307278,-2.844874,-3.143523
178.319104,-0.303704,3.754796,-5.191682
178.423891,-0.369991,-1.737938,0.741283
178.528680,-0.599924,0.168112,1.194376
178.633468,-0.217662,-2.168412,0.719055
178.738257,0.231142,-0.167796,-0.963290
178.843044,-0.442957,1.115366,0.118649
178.947833,-0.362452,-0.521093,1.688450
179.052621,2.665296,-0.936102,-1.208376
179.157410,-1.457302,0.807670,-3.396646
179.262197,1.321053,0.225744,1.572838
179.366986,0.095512,-1.677899,0.443750
179.471773,0.678817,1.341772,-1.464691
179.576562,-1.760315,-0.472106,2.315665
179.681350,0.705601,-2.276629,-4.938154
179.786139,-1.322559,-1.265415,-0.268767
179.890926,-0.057836,-0.387822,2.056633
179.995715,0.392113,1.848665,-0.223322
180.100503,1.025059,-1.001543,3.454208
180.205292,-0.652031,2.139994,-4.357071
180.310079,-0.844846,0.605040,1.370821
180.414868,0.894819,-0.865788,0.833928
180.519656,-0.293433,0.581327,-0.547066
180.624445,0.224556,-0.878851,1.139251
180.729232,-0.893699,0.450456,0.841791
180.834021,-0.088197,-0.215230,-2.172024
180.938808,-0.760741,-0.278138,2.587698
181.043597,1.087709,-0.547909,0.151741
181.148385,-0.728246,-1.286567,1.728587
181.253174,0.137592,1.382595,-1.109166
181.357961,-0.668857,-0.414890,-1.104116
181.462750,1.368104,0.078882,0.939741
181.567538,-0.089667,-0.347403,0.372310
181.672327,1.489824,0.954471,-0.118231
181.777114,-0.381609,-0.960389,0.769514
181.881903,-0.304042,0.805015,1.036463
181.986690,-1.451425,-1.188004,-0.276629
182.091479,-0.038791,-0.234671,1.413360
182.196267,0.051920,0.524566,-1.176272
182.301056,0.568259,0.145290,1.964190
182.405843,-0.011817,-0.824606,0.049107
182.510632,0.642677,1.088724,-1.531927
182.615420,0.642151,-1.532353,1.343352
182.720209,-1.431186,0.274813,1.377992
182.824996,0.800022,0.492146,-0.175795
182.929785,0.734132,-0.643243,0.294976
183.034572,1.208102,0.582188,0.419241
183.139362,-0.925174,-0.439667,0.164408
183.244149,-0.439350,-0.074724,0.528766
183.348938,0.295215,0.375296,0.237020
183.453725,-0.191434,-1.389102,0.115965
183.558514,0.046726,0.143699,0.010088
183.663302,-0.229393,0.498741,1.385329
183.768091,0.321569,-0.700297,0.102357
183.872878,0.755270,0.944855,1.134939
183.977667,1.216802,-0.460095,-1.154498
184.082455,-0.516621,-0.134864,0.743677
184.187244,-1.475667,-0.634965,0.588619
184.292031,0.538317,-0.272467,0.047692
184.396820,0.287635,1.081598,0.117127
184.501607,-0.807232,-0.907901,0.932578
184.606396,-1.393123,-0.229657,0.060131
184.711184,-0.337062,0.360670,0.920015
184.815973,0.119075,0.364593,-0.484777
184.920760,0.508724,-0.484084,0.124771
185.025549,-0.569888,0.579324,1.297481
185.130337,-0.524425,-0.729397,1.054792
185.235126,0.884605,-0.249616,-0.607659
185.339913,0.083276,0.616416,-0.223224
185.444702,-0.209457,-0.259085,0.226901
185.549490,-1.300119,-1.240208,0.245278
185.654279,-0.737282,0.594930,0.575903
185.759066,-0.750828,-0.089558,2.316091
185.863855,-0.638092,-0.127244,-0.219122
185.968642,1.663743,0.540883,-1.834372
186.073431,-0.473204,0.800934,1.519663
186.178219,1.570629,-1.930978,-0.848801
186.283008,-0.113076,0.401167,2.517475
186.387795,0.155418,0.038919,-1.319902
186.492584,0.062222,0.120647,1.375848
186.597372,-0.110672,-0.571145,-0.956042
186.702161,0.688491,0.569179,1.549622
186.806948,-1.422334,-0.722048,-0.616562
186.911737,0.396481,0.112707,1.292336
187.016524,-0.773916,0.356104,0.207431
187.121314,0.382516,-1.108292,0.925649
187.226101,-0.173377,0.047845,0.071014
187.330890,1.158219,0.064451,-0.012174
187.435677,-2.248134,0.298693,0.207350
187.540466,0.949196,-1.294964,0.612814
187.645254,-0.217731,1.791515,0.057588
187.750043,0.742435,-0.816385,-0.650388
187.854830,-0.950920,0.480085,0.217702
187.959619,-1.604542,-0.958268,1.475839
188.064407,-1.401285,-0.828111,2.112106
188.169196,0.003261,0.839741,-0.498940
188.273983,0.644629,0.521464,-0.033215
188.378772,1.627193,0.012069,0.108908
188.483560,0.257838,-0.375776,-0.450831
188.588349,-0.370054,-0.349961,2.789275
188.693136,-0.456557,0.021731,-1.650964
188.797925,0.696400,-0.052269,0.507240
188.902712,-0.540325,0.219696,2.187681
189.007501,0.429195,-0.685999,0.145221
189.112289,-0.368053,0.017156,0.399699
189.217078,0.469683,-0.607766,0.084975
189.321865,-0.271557,-0.458291,-1.068598
189.426654,0.342557,0.410966,0.788130
189.531442,-0.486059,-0.104605,1.141452
189.636231,0.396812,-1.442001,-1.389165
189.741018,-1.069692,1.817924,0.067359
189.845807,1.570743,-0.204302,1.699413
189.950595,0.019227,-0.440101,1.592963
190.055384,1.599312,-0.568215,0.324322
190.160171,-0.077777,0.969125,-0.541661
190.264960,-0.347271,-1.069660,0.261055
190.369748,-0.333202,0.383940,1.273112
190.474537,1.307978,-0.193439,0.641361
190.579324,-0.577340,-0.898710,0.518111
190.684113,-0.464135,-0.152425,-1.559244
190.788901,0.850618,0.886220,0.553755
190.893690,0.928793,-0.620844,2.050272
190.998477,0.100636,0.468082,-1.062103
191.103266,0.132404,-0.144519,-0.324151
191.208053,-0.050836,0.213493,3.113142
191.312843,-0.829316,-0.071797,2.207839
191.417630,0.565006,1.667792,-1.741521
191.522419,-0.022140,-1.159560,-0.051910
191.627206,-0.470416,-0.660293,0.744997
191.731996,0.848069,-0.492844,1.378409
191.836783,-0.291094,-0.431177,1.096105
191.941572,1.366583,0.608483,-0.174183
192.046359,0.210327,-0.797647,0.102422
192.151149,-0.205802,0.117281,0.838224
192.255936,0.741545,0.022337,-0.613285
192.360725,-1.427649,-0.824007,1.240238
192.465513,-1.528163,-0.309262,-0.057586
192.570302,2.548711,0.998015,-0.086955
192.675089,-0.456541,-0.603615,0.215449
192.779878,-0.103245,-0.458706,-1.046892
192.884666,-1.744689,1.200267,1.826887
192.989455,1.326898,-1.174747,0.786297
193.094242,-0.799709,0.063011,0.837124
193.199031,-0.122513,-0.171398,-0.477475
193.303819,-0.019540,-1.768721,-2.030534
193.408608,-0.496054,1.712704,-2.686321
193.513395,-0.176669,0.362914,0.914281
193.618184,0.452863,-1.094771,0.087032
193.722972,0.464490,0.058667,-0.494953
193.827761,-0.618526,-1.073951,2.106171
193.932548,-0.680272,-0.149751,1.285011
194.037338,0.434291,-0.077964,-3.318139
194.142125,-0.284299,-0.074648,0.723522
194.246914,-1.020827,-0.510299,0.298790
194.351701,-0.159917,0.889370,-0.601979
194.456491,0.490909,-0.446837,0.282361
194.561278,-1.021127,0.501863,0.146630
194.666067,0.583678,0.249806,2.276596
194.770855,0.025246,-0.332923,-0.768301
194.875644,-0.668252,1.330348,-1.468406
194.980431,1.880252,-1.718663,1.152798
195.085220,-1.326776,0.517801,-0.063308
195.190008,0.406604,-0.591342,-0.185888
195.294797,0.792499,0.031968,0.803364
195.399584,-0.027653,-0.670236,-1.638597
195.504373,-0.993333,1.454818,1.451183
195.609161,0.783403,-0.250212,1.436411
195.713950,1.519279,1.813433,-1.129393
195.818737,-0.006206,-2.221929,-0.142753
195.923527,-1.360147,1.259254,0.865184
196.028314,1.456157,-0.510139,0.006012
196.133103,0.691640,0.289822,0.100845
196.237891,-0.284925,0.164571,-0.970522
196.342680,0.372779,-0.548456,1.818102
196.447467,0.206990,0.650110,-0.399613
196.552256,1.311054,-0.568708,1.608769
196.657044,-1.577814,0.432519,-2.104485
196.761833,-1.157532,-0.347470,0.684118
196.866620,0.583927,-1.966351,0.658976
196.971409,1.000212,1.667002,0.822848
197.076197,0.816061,0.346231,-2.483776
197.180986,-0.518247,0.125500,2.482740
197.285773,1.580263,-0.001450,-0.698622
197.390563,-0.049638,-0.802033,0.952063
197.495350,-0.335046,0.180921,0.643471
197.600139,-0.260882,0.399328,-1.544326
197.704927,-0.027889,-0.024998,2.174572
197.809716,-0.988562,0.084045,0.371088
197.914503,-0.473322,-0.748156,-4.199242
198.019292,-1.111632,-0.209768,0.544918
198.124080,1.148889,-0.850533,2.743448
198.228869,0.003043,0.797447,-0.927769
198.333656,0.715060,1.297038,0.323017
198.438445,1.328493,-0.192698,1.683623
198.543233,0.554161,-0.900997,-0.101239
198.648022,-0.965774,0.084640,-1.378027
198.752809,-0.334608,-2.237672,1.533755
198.857599,-1.063907,1.677999,-1.537682
198.962386,0.153608,-0.295705,-0.008795
199.067175,-0.575960,0.144762,0.540196
199.171962,0.478963,-0.047687,-0.352798
199.276752,0.611852,0.420138,1.534171
199.381539,0.205114,-0.356357,0.192096
199.486328,1.155605,-0.317112,-0.164819
199.591116,0.639513,-0.488745,1.600958
199.695905,0.258783,0.511793,0.607581
199.800692,0.652062,-0.767953,-0.844361
199.905481,-0.919798,-0.367130,-0.898799
200.010269,0.739009,0.490327,1.138212
200.115058,-0.909236,-0.235778,0.164392
200.219845,-0.308829,-0.018735,-1.228645
200.324634,-1.415421,-0.011552,2.915641
200.429422,-0.082839,-0.591416,0.462905
200.534211,0.919903,0.705338,-1.523725
200.638998,0.719368,0.416911,1.964474
200.743787,-0.205564,-1.139830,-0.884991
200.848575,-0.363722,0.377808,1.018290
200.953364,-0.941072,-0.043122,0.027978
201.058151,-0.119569,0.560622,-1.427722
201.162941,0.303121,0.096279,4.143859
201.267728,1.718673,-0.118171,-2.065808
201.372517,-0.828721,-0.185913,-0.412631
201.477305,1.362378,-0.503407,-0.302137
201.582094,-0.547587,-0.098587,1.852125
201.686881,-1.233310,0.128454,1.569951
201.791670,0.215373,-0.081809,-0.820489
201.896458,2.052664,0.101367,-1.836960
202.001247,-0.239309,-0.752301,3.376362
202.106034,1.254429,0.274674,-1.992751
202.210823,1.244114,0.001581,1.498107
202.315611,0.558302,1.005801,-0.595130
202.420400,-1.280610,-1.002387,1.672094
202.525187,-0.024541,-0.590048,-1.852140
202.629977,0.678806,0.321219,2.164625
202.734764,0.633105,-0.176235,-2.013777
202.839553,-0.227063,0.005825,-0.547123
202.944341,0.651121,0.208433,2.178224
203.049130,-0.100131,-2.491338,-2.137646
203.153917,-0.075167,3.334121,0.851994
203.258706,0.099973,-1.838920,1.301704
203.363494,-0.652151,0.491236,-0.122148
203.468283,0.639420,0.222893,-0.793568
203.573071,-0.025683,-0.543609,1.367678
203.677860,0.443897,0.559275,-0.085989
203.782647,0.702283,-0.861131,0.475457
203.887436,0.745751,0.955132,-0.542063
203.992224,-0.485381,-1.056148,0.039186
204.097013,-0.683441,0.232286,1.009821
204.201800,0.688202,-0.670587,0.728098
204.306590,-0.982476,0.167973,1.197396
204.411377,-0.151468,-0.109332,0.145517
204.516166,-1.041139,0.523704,0.348988
204.620954,2.043383,-0.283515,0.078305
204.725743,0.242872,-0.088312,-0.417930
204.830531,-0.470706,-0.556960,1.289347
204.935320,-1.245937,0.694321,0.885998
205.040107,0.229750,-0.029260,0.539608
205.144896,-0.656787,-0.266823,0.130646
205.249684,-0.244972,0.212639,-1.871511
205.354473,-0.484808,-0.267766,2.571092
205.459261,0.450421,-0.256491,0.280681
205.564050,-0.701962,0.182076,0.224006
205.668837,0.935218,-0.669048,-0.412966
205.773626,0.007777,-0.229797,0.997074
205.878414,1.231530,1.202788,-1.715497
205.983203,1.340201,-0.868169,1.988895
206.087991,-1.119228,-0.266940,0.421933
206.192780,0.488797,0.326015,0.594119
206.297567,0.244636,-1.043476,-0.041260
206.402357,0.842249,-0.143098,-0.085071
206.507144,-1.444706,0.438696,0.910833
206.611933,-0.426980,-0.060965,1.502229
206.716721,1.645301,-0.202698,-0.864287
206.821510,-0.837554,0.135986,-1.025152
206.926297,1.690496,0.417096,1.364279
207.031087,1.013788,-1.095615,0.581696
207.135874,1.203477,0.624651,0.418312
207.240663,-0.505336,0.121643,0.126740
207.345451,1.287819,-1.541851,1.321234
207.450240,-1.578005,1.225407,0.199527
207.555028,-0.142264,-0.880518,1.301566
207.659817,-0.643008,-0.607435,-2.224330
207.764604,-0.696505,1.588336,1.727852
207.869394,-0.301735,-1.002362,1.196536
207.974181,0.039827,1.390608,-0.309905
208.078970,2.091938,-0.446570,0.389828
208.183758,-0.572803,-1.869257,-0.096411
208.288547,1.268631,1.364984,1.818672
208.393335,1.098083,-1.025868,1.254070
208.498124,0.085329,-0.696650,-0.169671
208.602911,-0.040755,-0.483862,-0.450481
208.707701,0.665267,1.988106,-0.077032
208.812488,1.706682,-1.239645,0.813718
208.917277,0.581087,0.265955,-0.668570
209.022065,-0.961542,0.318925,2.706136
209.126854,-0.322571,-2.390155,-0.728721
209.231641,1.851455,0.448881,1.578326
209.336431,1.360541,0.868816,-1.198643
209.441218,1.373027,0.074052,-0.254807
209.546007,-0.285194,0.360498,1.827961
209.650795,0.429948,-1.547588,-0.085885
209.755584,-0.251692,1.186748,0.108577
209.860372,1.654118,0.038776,0.382058
209.965161,2.205904,-1.753987,-1.168277
210.069948,1.158891,3.590406,2.955116
210.174738,1.303162,-1.635995,0.919265
210.279525,1.986059,1.565384,-1.391519
210.384314,-0.654110,-0.220584,0.162030
210.489102,1.973599,-0.092657,1.675398
210.593891,1.199472,0.276244,0.031482
210.698678,1.078765,-0.075033,-1.252596
210.803468,1.470886,-1.252437,2.960061
210.908255,-0.372857,-0.242763,-0.492086
211.013044,1.806501,0.432808,-0.162616
211.117832,2.435945,1.054820,-0.331234
211.222621,1.572008,-0.537717,1.009028
211.327408,2.056360,0.196990,0.193031
211.432198,1.215939,0.361612,0.098448
211.536985,1.164034,-0.309554,0.064791
211.641774,0.597478,0.542289,0.544748
211.746562,-0.568464,0.259347,0.705325
211.851351,3.140315,-0.087296,0.824378
211.956139,0.648115,1.600015,-0.623897
212.060928,3.028602,-0.180694,1.673890
212.165715,0.462671,1.405187,0.437942
212.270504,1.342593,-0.144972,1.104068
212.375292,1.152259,-0.785004,0.644471
212.480081,2.951581,0.352424,-0.230068
212.584869,2.070723,1.380643,1.013553
212.689658,0.872354,0.239623,1.949552
212.794445,0.327496,0.088641,0.127240
212.899235,1.480420,-1.479639,1.544880
213.004022,1.332169,0.397680,-1.638206
213.108811,1.675215,0.395392,-1.718301
213.213599,-0.710697,-1.647008,3.208078
213.318388,-0.375678,0.600608,1.878751
213.423175,0.023642,0.855104,-0.712286
213.527965,1.247502,1.312828,0.269329
213.632752,0.201025,-2.140267,2.550891
213.737541,1.005396,-0.382026,0.382160
213.842329,-1.089421,0.622993,0.212169
213.947118,0.448632,-1.344337,1.210840
214.051905,-1.996203,0.722627,0.826284
214.156695,0.294966,-0.047677,0.293599
214.261482,0.115020,-0.337795,-0.263409
214.366271,-0.850807,-2.762622,-0.057210
214.471059,-0.564078,3.348817,2.008462
214.575848,-0.116790,-1.867800,2.862791
214.680635,-1.214355,0.338682,-1.391027
214.785425,-0.060494,-0.055636,0.033187
214.890212,-0.515747,-1.568702,1.025572
214.995001,-0.162071,1.330161,0.028883
215.099789,0.796608,-1.644468,0.488473
215.204578,-0.844141,0.167046,0.697713
215.309365,-1.484188,-0.287777,1.887039
215.414155,0.086296,-1.307465,1.111815
215.518942,-1.071294,-0.869703,-1.993569
215.623731,-1.486828,1.890872,2.368659
215.728519,-1.941741,-2.603379,1.168654
215.833308,0.123677,1.914131,-0.015869
215.938095,-1.307245,-0.224776,1.963407
216.042885,-0.373491,-1.257860,-0.607440
216.147672,-0.164036,0.615784,-0.383780
216.252461,-0.039365,-0.437041,3.862026
216.357249,-1.147355,-0.883134,-0.284139
216.462038,-1.415671,-0.400699,-0.695866
216.566826,-0.619886,0.727228,2.124280
216.671615,0.338202,-1.015081,0.841752
216.776402,1.121598,0.991830,-1.840194
216.881191,-1.174282,-0.537851,0.936319
216.985979,-2.721330,-1.995505,1.020834
217.090768,-1.646422,-0.423279,-1.391372
217.195556,-4.674946,-2.126543,3.868731
217.300345,-0.174491,3.859607,6.329729
217.405132,1.741141,-1.103284,-6.682566
217.509922,2.754657,0.349853,-4.045883
217.614709,0.334060,-0.890238,3.772990
217.719498,-2.521533,-3.273080,0.596982
217.824286,-2.272315,2.618086,-2.453765
217.929075,-1.342093,-3.284761,1.501030
218.033863,-0.845904,-0.224135,-3.562583
218.138652,-2.625579,1.119827,2.286900
218.243439,-1.393373,-2.194005,1.810065
218.348229,-0.325669,1.305327,-1.139378
218.453016,-0.814198,0.342980,1.631609
218.557805,-1.862091,-1.208882,0.579397
218.662593,-1.501472,-0.135796,-0.805764
218.767382,-1.154939,-0.352981,-0.061615
218.872170,-2.495460,-0.595861,1.471851
218.976959,-1.390333,-0.177085,-0.656163
219.081747,-4.243671,0.184708,0.628511
219.186536,-2.793716,0.883991,2.726318
219.291323,-3.547206,-1.197436,-0.711073
219.396113,-2.902244,1.739347,1.890872
219.500900,-2.844011,0.825397,-0.888829
219.605690,-0.262104,-0.174213,-1.195372
219.710477,-1.528824,0.180888,1.061845
219.815266,-2.586639,-0.983340,0.307446
219.920054,-3.815896,0.062456,0.811875
220.024843,-2.634766,1.444114,-0.238544
220.129631,-1.532592,0.688194,1.192223
220.234420,-1.379020,0.673357,-0.310433
220.339208,-1.968261,-0.431814,-0.294863
220.443997,-1.925766,2.108958,1.876995
220.548785,-1.185596,-1.015433,-0.503459
220.653574,-1.773357,0.759946,-0.838177
220.758361,-1.238879,-0.385341,0.823513
220.863151,-2.958179,0.038541,-1.708913
220.967938,-1.634801,0.057764,1.611565
221.072728,-1.788053,-0.495913,0.427736
221.177515,-1.569940,1.016295,-0.246584
221.282305,-1.282350,-0.239925,0.026395
221.387092,-1.304049,1.159995,-0.137823
221.491882,-1.504677,-0.563373,0.846693
221.596669,-2.825730,0.151840,0.726861
221.701458,-0.781837,0.362584,-0.675717
221.806246,-2.117194,-0.527368,0.755711
221.911035,-1.448889,0.795326,-0.953015
222.015823,-1.027977,0.684532,0.196658
222.120612,0.358896,0.161179,1.043414
222.225400,0.112229,-0.659321,-0.886558
222.330189,-0.159087,-0.050508,1.018545
222.434977,-0.334398,-0.592677,1.159541
222.539766,-1.225005,0.247311,-0.942465
222.644554,-1.369101,0.299890,1.763233
222.749343,-0.639016,-1.006036,-0.277625
222.854131,-0.689790,0.421491,-0.218755
222.958920,0.233471,-0.081256,0.469011
223.063708,-1.122537,-0.265279,-0.186967
223.168497,-1.466613,0.787999,-0.673886
223.273285,-0.361866,-1.084506,-0.872146
223.378074,-1.643358,0.515777,1.000420
223.482862,-0.517510,1.081917,1.467268
223.587651,-0.330847,-1.544879,-1.452825
223.692439,-1.783175,1.222703,-1.252752
223.797228,-0.790021,-1.081357,1.241244
223.902016,1.803356,0.596567,-2.297168
224.006805,-1.165550,0.059299,1.963273
224.111592,-2.130119,-1.238216,0.227801
224.216382,-1.972222,0.523765,0.644303
224.321169,-0.067961,0.292776,0.191985
224.425959,-2.036918,0.121689,0.722500
224.530746,-0.410473,-0.254872,-0.876370
224.635536,-0.081143,1.069148,-0.104988
224.740323,-0.832243,-0.691095,0.696297
224.845113,-0.338010,-0.400332,-0.924889
224.949900,0.549882,0.470620,1.061972
225.054690,-0.382815,0.194274,-0.541428
225.159477,-0.153088,-0.585016,-2.220060
225.264267,-3.474614,0.083444,1.232715
225.369054,-0.581556,0.050888,2.281738
225.473844,-0.966209,0.141736,-0.352969
225.578631,0.814966,0.965232,0.225575
225.683421,-0.974500,-1.051136,-0.021805
225.788208,-0.212166,0.798798,-0.342255
225.892998,-0.805142,-0.815161,-0.179753
225.997785,-0.405674,0.534039,0.233171
226.102575,-0.126870,-0.213773,0.165567
226.207362,1.150367,-0.400681,0.132798
226.312152,0.300587,0.500503,0.322504
226.416939,-0.610686,-0.902006,1.822410
226.521729,-0.558079,0.745723,-1.367212
226.626516,-1.880037,-0.736219,1.429694
226.731306,-0.943838,0.205509,-0.242595
226.836094,-0.760324,0.864799,0.314519
226.940883,-0.406466,-1.574758,-0.681395
227.045671,-1.594181,0.830360,-0.487871
227.150460,-0.546657,-0.419547,0.650834
227.255248,-0.818359,-0.820062,-0.202931
227.360037,-1.522280,1.071709,-0.504922
227.464825,-0.394024,-0.804664,1.192866
227.569615,-0.364961,0.616050,-2.209897
227.674402,-0.866728,0.215527,0.586824
227.779192,0.678550,0.159678,1.325629
227.883979,-0.253305,-0.215779,-0.285301
227.988769,-1.605474,0.706728,-0.764663
228.093557,-0.195675,-1.387422,-0.390305
228.198346,-1.946203,1.849671,1.716581
228.303134,1.120111,-1.229410,0.107729
228.407923,-1.831888,0.405395,-0.680697
228.512711,-1.520055,0.066753,-0.272503
228.617501,1.762388,-0.677034,1.756859
228.722288,-1.423059,-0.162455,-1.154890
228.827078,-0.260568,-0.368016,-0.473850
228.931866,-1.269142,-0.778848,-1.150509
229.036655,-1.282662,0.901192,1.771407
229.141443,0.432054,0.651236,-0.012718
229.246232,0.274074,0.179688,-0.135490
229.351020,0.023233,-0.042272,-1.022089
229.455810,-1.080633,-0.029391,1.056431
229.560597,-2.812413,0.105764,1.340565
229.665387,0.242531,-1.225563,-1.131995
229.770175,-0.813603,0.708214,-0.711535
229.874964,-0.093755,-1.032506,1.186525
229.979752,-1.173940,-0.088317,-0.727959
230.084541,-0.843541,0.677236,0.523235
230.189329,0.544637,-1.358229,-1.067544
230.294119,-1.474120,2.401891,3.590774
230.398906,1.000951,-1.858837,-2.277271
230.503696,-1.854897,0.056669,-0.638666
230.608484,-0.855797,-0.012275,-0.573704
230.713273,-0.621329,0.645669,-0.713139
230.818061,-0.015692,-1.521439,-1.376560
230.922851,-0.696038,2.299630,2.664629
231.027638,-0.108684,-1.808583,-0.459043
231.132428,-0.979258,2.071805,-2.781569
231.237216,0.793389,-1.708435,3.162345
231.342005,-0.574413,1.378514,-0.481298
231.446793,-0.753603,-1.535542,0.294723
231.551583,0.107972,-0.165183,0.280085
231.656370,0.500769,0.855746,0.335284
231.761160,0.443530,-0.210468,-1.269637
231.865948,-0.886570,-1.028916,0.160492
231.970737,-0.840163,1.177812,0.282540
232.075525,0.731903,-0.650535,0.155651
232.180315,-0.523198,0.611347,-0.854550
232.285103,-0.908003,-0.899939,2.011248
232.389892,-2.054276,-0.104339,-0.030762
232.494680,0.046621,0.678515,-1.964500
232.599469,0.361209,0.207858,1.929082
232.704257,-0.083649,-0.517818,-0.904309
232.809047,0.703165,0.564378,0.322185
232.913835,-0.073512,-0.762000,0.005779
233.018624,-0.303960,0.952021,0.922862
233.123412,-0.508389,-0.885769,-0.239067
233.228202,-1.377419,0.218626,-0.583853
233.332990,0.983633,-0.903153,-1.382672
233.437779,0.059375,1.442067,-0.524194
233.542567,-0.857809,-0.648493,1.697710
233.647357,-1.767991,-1.034699,-2.536778
233.752145,-1.073993,1.588571,2.290060
233.856934,1.472897,-0.251043,0.588701
233.961722,-0.806531,0.106393,0.576017
234.066512,1.508692,0.113046,-0.303580
234.171300,0.358770,-1.557426,0.115070
234.276089,-0.152242,0.508214,0.751099
234.380877,-0.155016,0.660207,-3.625154
234.485667,-0.302898,-2.332464,-2.525088
234.590455,-2.609023,2.798086,5.783593
234.695244,-0.894487,0.254795,0.054895
234.800032,0.229751,0.215643,2.988703
234.904822,-0.639134,0.690107,-2.354626
235.009610,-0.358002,-1.722244,0.240741
235.114399,0.289659,-0.548903,0.806760
235.219187,0.555595,-1.526772,-0.883778
235.323977,0.162371,-2.191255,0.168120
235.428765,-0.898619,1.023911,-0.785720
235.533554,-0.054480,0.403912,-0.665361
235.638342,-0.333654,-0.611198,0.857256
235.743132,-0.277225,1.243196,0.055385
235.847920,0.424118,-0.054656,3.650464
235.952710,0.541970,0.256809,-1.494532
236.057497,-1.145060,1.904734,-0.653688
236.162287,-1.007566,-2.472347,-0.209804
236.267075,-1.935342,-0.422574,1.171937
236.371865,0.972782,1.281400,0.164716
236.476653,-1.378209,-0.609738,0.460627
236.581442,0.461148,0.034300,0.535625
236.686230,-0.042241,0.358585,-0.449758
236.791020,-0.708666,-1.140483,-0.221335
236.895808,-1.529072,1.216286,0.677215
237.000597,-0.004084,-0.675312,1.395028
237.105385,0.626531,-1.380375,-2.836098
237.210175,-0.607367,2.259388,3.302766
237.314963,-0.021654,-1.718658,-2.936337
237.419752,-1.172940,1.289371,-0.540360
237.524540,-0.693812,-0.795489,0.866115
237.629330,-0.055377,-0.767956,1.034376
237.734118,-0.815225,1.068445,-0.564097
237.838907,-0.441583,-0.793857,-0.882499
237.943695,-0.551981,0.296410,-0.640133
238.048485,1.294042,-0.002212,0.903713
238.153273,-0.050065,0.135169,0.120227
238.258062,-1.010970,-0.389086,-0.358892
238.362850,-0.417821,-0.864736,0.668100
238.467640,0.837038,0.937514,0.187101
238.572428,-1.277355,0.020541,-0.437758
238.677217,-1.195777,0.112629,-0.496472
238.782005,-1.105116,0.425821,0.958332
238.886795,0.158932,0.137065,0.598334
238.991583,0.115471,-1.392738,-1.069673
239.096372,1.694980,-0.509708,-0.241442
239.201160,-0.036815,-1.124471,-0.630033
239.305950,-1.416834,3.498061,-0.061290
239.410738,0.539486,-3.965199,2.805374
239.515527,-0.382012,3.406972,-1.789584
239.620315,0.710548,-0.968690,1.914280
239.725105,-0.776525,-0.430676,-0.639374
239.829893,-0.105830,0.810651,-0.181192
239.934682,1.483235,-1.845345,0.889927
240.039470,-1.908440,1.143387,0.491014
240.144260,-0.282539,-0.988851,0.869645
240.249047,0.199632,0.346704,1.041167
240.353837,-0.323867,-0.307525,-0.281241
240.458625,-1.472029,0.306769,-0.546703
240.563414,0.661664,-1.080242,-0.802103
240.668202,0.310623,1.191391,0.498278
240.772992,0.221889,-0.446401,1.748633
240.877780,-0.253103,-1.676317,-0.660733
240.982569,-0.664828,2.730466,-0.632319
241.087357,1.631950,-3.025494,-1.561241
241.192147,-0.890624,3.162347,0.917420
241.296934,-0.303562,-3.166029,2.599844
241.401724,-0.411916,1.830037,-0.805252
241.506512,0.132476,-1.026212,0.990486
241.611301,-2.039446,-0.457315,-0.681972
241.716089,0.975788,0.723572,1.039156
241.820879,0.425743,0.100469,0.469395
241.925667,1.107063,0.362124,-0.041179
242.030456,0.951345,-0.107596,0.463108
242.135244,0.055008,1.276953,1.117111
242.240033,-0.948223,-0.666701,0.416149
242.344821,0.010551,-5.725597,3.071889
242.449611,-0.544675,-0.699869,-2.858929
242.554399,1.490455,3.528188,-5.486766
242.659188,-0.400192,-4.171236,1.365831
242.763976,4.860022,3.024464,-2.668101
242.868766,-1.454058,-2.090516,4.020380
242.973553,0.580345,-1.392739,1.777454
243.078343,-0.429428,-0.127767,-0.625092
243.183131,2.183494,0.542449,-0.272829
243.287920,0.365243,0.775653,-0.792234
243.392708,1.126927,0.559674,1.031561
243.497498,1.186641,-0.532974,0.765245
243.602285,1.642391,-0.309996,0.432564
243.707075,0.551925,1.080037,1.219807
243.811863,1.923453,-0.747491,0.971439
243.916652,1.529528,1.816723,0.181296
244.021440,2.193201,-1.879363,-0.936142
244.126230,2.661867,0.988837,-0.116622
244.231017,1.526425,1.754249,0.402350
244.335807,-0.167222,-0.527718,1.432233
244.440595,0.666963,-1.015584,0.901366
244.545384,0.978074,0.277376,-0.168471
244.650172,1.228005,0.666556,0.765119
244.754962,1.146539,0.492954,-1.534611
244.859749,1.682038,-0.155103,0.367780
244.964539,2.282628,0.948273,0.762844
245.069327,1.767727,-0.269292,-0.327215
245.174116,2.536533,0.971284,1.025957
245.278904,0.289096,0.220812,1.108749
245.383694,1.600244,-0.533619,1.231877
245.488481,0.681766,1.016923,-0.196425
245.593271,0.386123,-0.975199,-0.689510
245.698059,0.246299,0.832588,2.852522
245.802848,0.020819,-0.224842,0.603338
245.907636,0.559521,-0.802035,0.175720
246.012426,1.267888,0.268671,0.243565
246.117214,0.640368,0.167522,-0.574234
246.222003,-0.145244,-0.748389,-1.280592
246.326791,2.853019,-2.327709,-0.796224
246.431580,-0.066725,2.311077,0.975903
246.536368,1.363795,-0.019396,3.095709
246.641158,-3.704948,-3.492081,-0.795975
246.745946,1.468108,5.655394,-2.449059
246.850735,-1.146479,-2.777113,1.453364
246.955523,0.044823,0.167257,0.859206
247.060313,1.178577,0.310821,0.255696
247.165101,-0.721971,-0.122624,1.596286
247.269890,-1.802554,-1.157021,-0.847409
247.374678,3.201945,0.868077,1.030981
247.479468,-1.301688,-0.804667,-0.524173
247.584255,-0.086916,-0.200477,1.931194
247.689045,-0.576451,-0.994470,-2.025532
247.793833,-1.027316,0.470738,-0.324220
247.898623,-1.169308,-0.714002,2.236822
248.003410,-1.977200,1.126134,2.003247
248.108200,0.536462,-0.165140,0.384645
248.212988,-0.716025,-0.555316,-0.052763
248.317778,-0.134446,1.228778,-1.705510
248.422565,-0.098338,-0.465769,2.050045
248.527355,-1.903234,-0.256811,1.046978
248.632143,-1.673288,-1.654040,1.664586
248.736932,-0.660553,-0.311589,-1.970862
248.841720,-1.381995,1.470608,2.451535
248.946510,0.299495,-1.076842,-0.022317
249.051298,-0.531610,0.883902,0.800099
249.156088,0.151651,-1.002612,0.335769
249.260875,-0.353409,0.540079,0.821851
249.365665,-0.440005,-1.708932,-0.029694
249.470453,-1.591421,0.906788,0.012083
249.575243,-0.615421,-1.561342,0.429381
249.680030,-2.832648,1.770834,-0.003565
249.784820,0.106903,-1.892761,0.351512
249.889608,-0.321989,2.262997,1.998824
249.994398,-1.263549,-1.474695,0.836791
250.099186,-0.424697,1.333891,-0.932278
250.203975,1.117146,-1.030600,0.597986
250.308763,-2.043344,-0.694029,2.170790
250.413553,-0.502977,-0.394799,-0.061702
250.518341,-1.341551,-0.020873,0.005320
250.623130,0.052025,0.203113,1.275357
250.727918,-0.459963,-0.406050,0.496264
250.832708,-0.410545,0.029044,-1.212261
250.937496,-0.961579,-1.587347,1.331835
251.042286,-0.330121,1.498380,-1.671539
251.147073,0.462342,-0.562292,0.338874
251.251863,-1.345837,-1.351050,-0.115486
251.356651,-1.140765,1.235985,0.051604
251.461441,0.111840,-1.202016,1.899598
251.566229,-0.193502,-0.862322,-0.737170
251.671018,-0.949887,1.098218,0.844860
251.775806,0.021724,-0.102133,1.972328
251.880596,0.602625,-1.470478,-0.907148
251.985384,-1.542593,1.271566,0.948303
252.090174,-0.573417,-0.655841,1.079048
252.194962,1.013743,0.678788,1.409457
252.299751,-0.521732,-0.599946,-1.486342
252.404539,-0.259066,-0.298401,-0.110472
252.509329,-1.044600,0.040143,1.186033
252.614117,-1.004544,-0.761382,1.532600
252.718907,-1.090828,-0.677201,0.568449
252.823695,-0.013577,0.047857,0.060286
252.928484,-0.540058,0.309518,0.708439
253.033272,-0.960604,-0.577391,0.961039
253.138062,-1.091044,0.053745,-0.049559
253.242850,0.025942,0.078990,1.704066
253.347640,-0.050072,-0.343066,0.052894
253.452428,0.082900,-0.069178,-0.454446
253.557217,-1.079208,-0.040709,1.324464
253.662005,0.015960,0.130905,1.214648
253.766795,-0.927861,-0.501990,-1.048295
253.871583,-0.195093,0.250414,1.894452
253.976373,-1.820433,-0.203803,0.475595
254.081161,-0.823303,0.336883,0.976200
254.185951,-0.429061,-1.292116,-0.757652
254.290739,-0.322350,0.296276,0.270962
254.395528,-0.964641,0.006424,2.505464
254.500316,-0.795074,-0.400011,0.020087
254.605106,0.060940,-0.028211,0.471638
254.709894,-0.556849,0.091900,-0.105689
254.814684,0.741297,-1.144902,1.150578
254.919472,-0.811968,0.490785,0.275219
255.024261,0.875468,0.461895,1.210224
255.129049,-1.160334,-1.823936,-0.262284
255.233839,-0.833361,0.888192,1.305561
255.338627,-1.475746,-0.413459,0.243621
255.443417,-0.903082,-0.158081,1.298779
255.548205,0.055259,-0.413420,0.605472
255.652995,-0.815938,-0.200662,-0.089726
255.757783,-1.147841,0.718054,1.345762
255.862572,1.126826,-1.182002,0.648868
255.967360,-0.366652,0.736589,0.998114
256.072150,-0.047967,0.008673,0.503147
256.176938,0.246677,-0.845217,0.622066
256.281728,0.559637,0.391944,0.506630
256.386516,-0.848911,-0.414454,1.367759
256.491306,-0.614166,-0.954379,-1.329510
256.596094,-1.094877,0.427296,1.587712
256.700884,0.426916,-0.879494,1.836412
256.805672,-0.694813,0.595071,0.167283
256.910462,-1.074355,-0.660405,-1.180283
257.015250,-0.214676,0.533561,2.114235
257.120039,1.141492,-0.082190,1.182337
257.224828,-0.317015,-1.412310,0.035648
257.329617,-0.499111,0.226208,-0.430448
257.434405,-0.326041,-0.033723,1.670936
257.539195,-0.170423,-0.871351,0.970190
257.643983,-1.583851,-0.377104,-0.207047
257.748773,-0.757642,-0.270780,1.066233
257.853561,-0.603998,0.542232,1.280824
257.958351,-1.360790,-1.144427,-1.671268
258.063139,-1.771657,0.040079,2.228604
258.167929,-1.850116,0.583458,0.621059
258.272717,-0.540308,-0.405067,-0.347583
258.377507,0.101069,0.278760,-0.252864
258.482295,-0.104434,0.308490,1.059316
258.587085,-0.955138,-1.224937,1.157070
258.691873,-0.840775,-0.286207,0.809893
258.796663,-1.515020,0.824662,-0.280836
258.901451,-0.432120,-0.368762,1.291921
259.006241,-0.644672,0.220168,-0.855021
259.111029,-1.754348,-0.033069,-0.430970
259.215819,0.067949,3.960667,0.883224
259.320607,1.217002,-5.842526,0.037734
259.425397,-1.672351,0.270007,1.566145
259.530185,-1.409607,0.049579,0.021696
259.634975,-0.580561,-5.716863,4.002703
259.739763,-0.586416,1.003152,-1.378978
259.844553,-2.821885,-1.789292,-1.717260
259.949341,-1.136612,2.799514,-1.064396
260.054131,-0.398095,-1.778538,-0.296144
260.158919,1.394543,0.063110,-0.108582
260.263709,-2.192448,0.280389,-4.655607
260.368497,-1.056081,0.434185,3.305174
260.473287,0.683660,-3.044489,-1.867098
260.578075,-2.132361,1.316493,1.027363
260.682864,-1.053011,1.034243,0.184479
260.787653,0.622319,-1.277952,2.069013
260.892443,-0.182711,0.154617,-1.875380
260.997231,-0.478654,-0.549796,2.624132
261.102021,-0.284536,-0.845047,-2.094876
261.206809,-1.172474,0.311161,1.912911
261.311599,-0.999105,0.271150,0.506733
261.416387,0.511589,-2.628210,-0.326659
261.521177,-0.654561,0.621466,-3.121709
261.625965,-0.187469,0.365285,1.714643
261.730755,-2.563177,1.158895,-0.866390
261.835543,1.449147,-1.184913,2.472392
261.940333,1.017592,1.251646,-0.124455
262.045121,0.294834,0.301477,0.238694
262.149911,-1.417061,-0.904931,-0.700290
262.254699,0.362047,0.136942,1.242626
262.359489,-0.370919,-0.371050,1.041384
262.464277,0.437868,-0.243197,0.038111
262.569067,0.352037,0.062321,0.504130
262.673855,-0.377884,-0.638169,0.991407
262.778645,-0.668093,-0.148819,0.769921
262.883433,-1.232834,-0.497373,0.657360
262.988223,0.711505,-0.009913,0.847790
263.093011,-0.609823,0.050249,0.924239
263.197801,-0.345584,-3.426991,-8.199226
263.302589,-5.524306,8.945486,-1.980598
263.407379,3.163211,-8.944902,8.217268
263.512167,-4.409195,-0.688524,-4.878595
263.616957,0.402334,-6.173325,5.367244
263.721745,-2.310775,-1.694393,-0.132481
263.826535,-0.827853,0.879104,-1.355371
263.931323,-1.307809,-0.172056,3.033089
264.036113,-2.064717,-1.333804,0.884590
264.140901,-3.051831,-0.975212,0.845613
264.245691,-3.995150,1.418140,-0.474437
264.350479,-3.227644,0.460469,2.743672
264.455269,-0.766753,1.861445,-1.272904
264.560057,-1.388799,-0.467856,1.869827
264.664847,-1.706698,-1.573177,-0.199659
264.769635,-3.683228,1.783347,1.294513
264.874425,-1.267002,0.105102,1.215622
264.979213,-3.498833,0.019753,0.065860
265.084003,-3.073918,0.985508,-0.435440
265.188791,1.460942,0.829788,0.076232
265.293581,-0.818136,0.110806,0.384780
265.398369,-3.839578,-1.348758,0.670983
265.503159,-0.656972,0.762064,-0.741743
265.607947,-3.044011,0.247638,0.361282
265.712737,-1.595161,1.110825,-0.424051
265.817525,-0.728237,0.735499,0.559283
265.922315,0.670584,1.734757,-1.244690
266.027103,3.595175,-0.384237,0.141761
266.131893,2.582366,-1.183553,0.537574
266.236681,0.337368,-0.096601,-0.500430
266.341471,-0.348761,-0.949532,0.680623
266.446259,-1.339734,-0.014688,1.541291
266.551048,-2.847216,-1.514382,-0.821211
266.655837,-1.992332,0.535423,-1.593814
266.760626,-0.702362,0.206302,2.900067
266.865414,-1.669117,-0.699540,0.806515
266.970204,2.093936,1.077201,-0.666579
267.074992,2.563998,0.131539,1.545083
267.179782,0.640349,-0.850558,-2.202154
267.284570,-0.089670,-0.502979,-0.325255
267.389360,0.362996,0.543878,1.635155
267.494148,-0.843542,-0.165150,-0.018484
267.598938,0.636922,0.151334,-0.679648
267.703726,0.716672,0.532372,1.353732
267.808516,2.050199,-2.453186,-5.030869
267.913304,-0.571505,2.887404,2.961224
268.018093,0.567651,-1.117509,0.345397
268.122882,1.118921,-2.318359,2.221795
268.227671,-2.470264,1.322384,-3.425812
268.332459,0.157163,-0.244341,-0.430929
268.437249,2.079855,0.864315,2.521556
268.542037,0.249645,-1.392039,-0.838218
268.646827,-0.727752,0.497188,2.344493
268.751615,2.299042,0.191916,-2.660942
268.856405,0.381151,-0.793930,1.859352
268.961193,2.196337,1.646992,-0.234310
269.065983,-0.033881,-2.294527,-1.156787
269.170771,-0.210933,0.886479,2.159651
269.275561,-0.399012,0.122900,-0.489111
269.380349,0.174600,-0.759961,1.670459
269.485138,0.795742,0.618785,-1.423265
269.589926,0.493018,0.959091,0.479515
269.694716,1.693703,-0.748602,2.208712
269.799504,-0.989057,-0.835623,-0.677677
269.904294,0.679632,0.861927,-0.802053
270.009082,0.696416,-0.113485,2.267456
270.113872,-0.877429,-1.324349,0.220120
270.218660,0.593381,-0.004098,0.048000
270.323450,-1.019492,1.366571,1.934517
270.428238,1.839471,-1.025075,-0.629970
270.533028,-0.078641,-0.478064,0.188250
270.637816,0.196896,1.002886,-2.068571
270.742606,0.456029,-1.488719,2.852855
270.847394,0.056522,-0.049779,1.521450
270.952184,1.353082,0.651635,-2.021359
271.056972,-0.607726,-1.147920,0.997095
271.161761,-0.196699,0.667729,0.249379
271.266549,1.287251,0.212557,1.493989
271.371339,-1.306561,-1.304306,0.381545
271.476127,-0.163179,0.535089,-0.167459
271.580917,0.833406,0.293112,0.123181
271.685705,-0.230442,-0.304988,1.479644
271.790495,2.366830,-0.713564,-3.449283
271.895283,-0.903261,0.652651,1.963207
272.000073,0.387294,0.505851,1.222289
272.104861,0.232677,-0.926145,2.151211
272.209651,1.535084,-0.658541,-0.058402
272.314439,0.805522,0.367505,-1.045024
272.419229,1.648526,1.236047,-0.599351
272.524017,1.204241,-0.791090,0.385195
272.628807,-0.726695,-0.548443,1.414524
272.733595,-1.626799,-0.830548,-0.581384
272.838384,0.197598,-0.139841,0.556822
272.943172,1.089507,0.712490,-2.337543
273.047962,-0.484244,-0.054109,2.945897
273.152750,-0.156590,-0.037009,0.100207
273.257540,1.744503,0.176438,0.568203
273.362328,-0.041372,-0.728186,-0.287144
273.467118,-0.394084,-0.068484,0.885147
273.571906,0.773914,0.374155,-1.044026
273.676696,-1.426586,-0.964981,4.239467
273.781484,1.733592,-0.535282,-1.422827
273.886274,1.862998,0.902850,-0.262410
273.991062,0.625400,0.089039,0.648313
274.095851,0.072881,-0.422660,0.346806
274.200640,-0.956520,-0.919469,0.845658
274.305429,-0.711755,1.245263,1.615302
274.410217,0.650024,0.008415,0.930925
274.515007,0.393771,-1.074657,-0.247933
274.619795,1.270179,0.400083,0.813073
274.724585,-0.760822,-1.892515,-0.832284
274.829373,-0.368416,2.151194,0.431239
274.934163,0.269931,-0.782532,0.480894
275.038951,0.006483,-1.594520,1.049416
275.143741,-0.221543,1.952211,-0.793626
275.248529,1.028914,-0.177721,2.328608
275.353318,-0.233699,-0.527409,-0.791308
275.458106,0.187457,0.455925,2.104292
275.562896,0.430888,-0.160209,1.052573
275.667684,0.575092,-0.506214,-0.671055
275.772474,0.187345,0.702635,-0.292127
275.877262,-0.109367,-1.124321,-0.056496
275.982052,0.196778,-0.678014,1.831001
276.086840,-0.688278,0.097487,1.012338
276.191629,-1.223790,-1.127326,0.095811
276.296417,0.513261,0.881490,-0.955563
276.401207,0.676768,0.121922,0.898664
276.505995,1.156421,-0.133063,1.531053
276.610785,-0.395155,-0.060605,-0.135445
276.715573,0.325479,-0.947511,-0.699233
276.820363,0.376385,1.232757,-0.760290
276.925151,1.041272,-0.475671,0.854390
277.029940,-0.830264,-0.546964,1.339855
277.134728,-0.201921,-0.528793,0.070988
277.239518,0.134427,-0.066299,1.461470
277.344306,-0.587002,0.459274,0.429772
277.449096,-0.221221,-0.466550,0.891033
277.553884,1.499522,0.775689,-1.292101
277.658673,0.456407,-0.953974,0.633466
277.763461,-1.335060,0.102262,-0.500306
277.868251,-1.115260,0.171598,1.370942
277.973039,0.090642,-1.144718,0.648252
278.077829,-0.872082,0.950689,0.126588
278.182617,-0.104283,-1.252884,0.525641
278.287406,-2.173598,-0.078232,-1.105142
278.392194,-2.263796,-0.241559,0.470838
278.496984,-2.246045,0.382200,1.646713
278.601772,-1.383875,1.001257,-0.045094
278.706562,-0.058869,-0.322995,0.160332
278.811350,-1.705569,0.777431,1.148246
278.916139,-0.814535,-0.340587,0.632306
279.020927,-0.217912,0.771765,-0.597035
279.125717,-0.396761,0.333959,1.344326
279.230505,-0.536497,-1.581854,0.039470
279.335294,-0.063117,3.026059,-0.116096
279.440082,0.025735,-3.180473,1.649590
279.544872,-0.436330,-0.730739,0.488193
279.649660,1.464479,1.874592,-1.368033
279.754450,-0.443661,-1.545042,1.897495
279.859238,-1.205877,-1.075008,1.450461
279.964027,-0.714027,-0.594190,2.986482
280.068815,0.646595,-1.163975,2.259952
280.173605,0.878268,0.531864,1.797983
280.278393,-0.462735,-1.685703,3.797151
280.383182,0.455439,-0.708258,0.983674
280.487970,-0.395674,-0.403104,0.858289
280.592760,0.084396,-0.708563,1.602705
280.697548,0.937580,0.955953,-0.228830
280.802337,0.505615,-0.514359,1.740839
280.907125,-0.012581,-0.665495,0.403904
281.011915,0.828246,-0.012560,0.219898
281.116703,0.422295,0.272831,-0.183064
281.221492,0.751731,0.350280,1.612245
281.326280,1.620204,0.316464,-0.465419
281.431070,2.567405,0.259186,0.541335
281.535858,0.915518,-0.297750,-0.264634
281.640647,1.226500,0.097646,1.025451
281.745435,-0.333932,0.246268,-0.083300
281.850225,-0.109317,-0.007404,0.390257
281.955013,-1.085217,-0.679190,0.924268
282.059803,1.166135,-0.302504,0.307827
282.164590,0.375527,0.536394,0.891931
282.269380,1.517154,0.207321,-1.140289
282.374168,-0.916358,-0.584965,0.310814
282.478958,1.180736,0.482961,0.059793
282.583745,-0.644137,-0.583470,0.815723
282.688535,0.628763,-0.071309,0.027361
282.793323,-0.183609,0.271532,-0.003913
282.898113,1.280337,0.147197,-0.106232
283.002900,0.790376,-2.539765,-3.761387
283.107690,1.496042,0.932103,2.738295
283.212478,-2.289475,3.068151,-2.739359
283.317268,3.243247,-2.033893,2.706125
283.422055,-2.075403,0.084426,0.165513
283.526845,0.906029,0.045675,0.020211
283.631633,0.776547,-1.692533,1.493636
283.736423,2.543730,-2.147941,-3.524279
283.841210,-0.466719,1.146992,0.637027
283.946000,1.005107,-2.884827,1.692842
284.050788,1.543249,1.725170,-1.752293
284.155577,1.735783,0.233745,0.087006
284.260365,1.836008,-0.286140,0.545645
284.365155,0.120026,-0.111981,0.155781
284.469943,-1.662615,-0.084278,-0.174964
284.574732,0.416607,0.420597,-0.735957
284.679520,0.518857,0.420971,-0.722786
284.784310,0.739035,0.500459,-0.527538
284.889098,2.209778,0.561760,-1.122045
284.993887,1.675468,0.445621,-0.239401
285.098675,-0.897091,-0.554328,0.686184
285.203465,0.390996,-0.140484,0.186516
285.308253,0.439150,0.400455,-0.513536
285.413042,0.900088,0.393018,0.796052
285.517830,-0.314774,-0.396349,-0.842538
285.622619,-0.351412,0.274931,0.088499
285.727407,-0.349496,0.175332,-0.472102
285.832197,0.600728,0.312308,-0.901287
285.936985,0.382211,0.565579,-0.160817
286.041774,-0.107637,0.098523,-0.684688
286.146562,-0.746084,0.308956,-0.587352
286.251352,0.884817,0.201832,0.098877
286.356140,0.978413,-0.085331,0.539191
286.460929,0.465476,-0.042666,-0.122832
286.565717,0.759890,0.258867,-0.107028
286.670507,-0.429205,-0.403366,-0.000740
286.775294,-0.336605,0.371249,-0.591965
286.880084,-0.070638,0.402506,0.139934
286.984872,1.598042,0.429565,-0.522796
287.089661,0.405477,0.019410,-0.283165
287.194449,0.517476,-0.029875,0.040360
287.299239,-0.994583,-0.365637,0.370090
287.404027,-0.703172,0.150039,-0.428020
287.508816,-0.554553,0.040441,0.050635
287.613604,0.126634,0.501538,-0.133504
287.718394,0.912940,0.348753,-0.526908
287.823181,1.318091,0.731872,-0.893010
287.927971,0.408106,-0.456745,0.120013
288.032759,-1.380433,-0.107888,-0.063334
288.137548,0.669394,-0.179299,0.251256
288.242336,-1.271731,-0.111048,0.555028
288.347126,0.139932,0.217063,-0.570385
288.451914,1.273508,0.554609,-0.123387
288.556703,0.392687,-0.090712,-0.230149
288.661491,0.212813,0.172012,-0.392254
288.766281,0.744652,0.473406,-0.027473
288.871068,0.022499,-0.288757,-0.035322
288.975858,-0.909453,-0.172716,0.570034
289.080646,-1.128087,0.366579,-0.777792
289.185435,0.651273,0.355793,-0.047797
289.290223,0.029704,0.316908,-0.086010
289.395013,0.862062,-0.012587,-0.181706
289.499801,0.335278,0.245208,0.018862
289.604590,0.078962,-0.246388,-0.071667
289.709378,0.601634,-0.254992,0.452020
289.814168,0.676641,0.424094,-0.482170
289.918956,0.538841,0.024860,0.141705
290.023745,0.681080,0.287272,-0.677269
290.128533,0.867804,-0.145083,0.512720
290.233323,-0.235101,0.023125,-0.039190
290.338110,-0.015658,0.157480,-0.272013
290.442900,0.190700,0.022316,0.349754
290.547688,-0.485697,0.498097,-0.532459
290.652478,0.891435,-0.085484,0.041931
290.757265,-0.260095,-0.101812,0.114976
290.862055,0.462661,0.361894,-0.162294
290.966843,0.136944,-0.184152,0.190786
291.071632,-0.149796,0.045796,0.156730
291.176420,-0.174006,0.364919,-0.178944
291.281210,0.376108,-0.331866,0.632699
291.385998,0.736252,0.167516,-0.470817
291.490787,0.106106,-0.046129,0.183245
291.595575,0.820803,-0.157760,0.278417
291.700365,-0.731070,0.283645,-0.193102
291.805153,0.868358,0.374542,-0.074741
291.909942,0.038602,-0.053183,0.462361
292.014730,-0.529685,-0.240704,0.081848
292.119520,-0.255546,0.685363,-0.366024
292.224308,0.870251,-0.117818,-0.142655
292.329097,0.301404,0.143456,0.121684
292.433885,0.838135,0.048592,-0.131592
292.538675,-0.926038,0.321779,0.012115
292.643463,1.839179,-0.699599,0.340158
292.748252,-1.280793,-0.004864,0.318781
292.853040,-0.733977,-0.011055,0.060287
292.957830,-0.001471,-0.106563,0.188205
293.062618,0.121081,0.439245,0.201445
293.167407,1.121978,0.321514,-0.352448
293.272195,1.569673,0.358347,-0.198266
293.376985,0.557180,-0.302095,0.811595
293.481773,-0.200019,-0.299146,-0.121910
293.586562,-0.386023,0.027223,-0.436151
293.691350,1.355756,0.274438,0.296749
293.796140,1.058058,0.295093,-0.299560
293.900928,0.341122,0.054215,0.275780
294.005717,-0.929891,-0.365475,0.437561
294.110505,-0.293887,-0.721656,0.640313
294.215295,-1.403968,0.172518,-0.107100
294.320083,0.416554,0.507092,0.105102
294.424872,1.045036,0.309774,-0.498975
294.529660,1.915130,0.500539,0.355233
294.634450,1.160885,-0.268906,-0.288449
294.739238,0.001807,-0.045085,0.663266
294.844027,-1.311801,-0.423098,0.611962
294.948815,-1.169928,-0.081167,-0.219087
295.053605,1.582750,0.463325,-0.273468
295.158393,-0.225326,0.051089,-0.122916
295.263182,-0.573025,-0.074999,0.106482
295.367970,-0.407137,-0.095252,0.128807
295.472760,1.239386,0.002469,0.450394
295.577548,-0.004536,0.475296,0.146735
295.682337,0.400907,-0.251585,-0.213415
295.787125,0.774764,0.499806,-0.327192
295.891915,0.464163,-0.209626,0.392264
295.996703,-0.478458,-0.193731,0.508280
296.101492,0.276611,-0.074417,0.052566
296.206280,-0.097153,0.370879,0.312885
296.311070,0.307148,-0.054689,-0.150387
296.415858,0.725906,0.143345,0.346396
296.520647,0.621351,0.262711,-0.940467
296.625435,-1.419459,-0.414504,0.801487
296.730225,-1.938116,-0.133239,0.179117
296.835013,0.923950,-0.191430,0.447147
296.939802,0.142555,0.569724,0.127493
297.044590,0.928989,-0.020040,0.034874
297.149380,0.720882,0.081647,-0.114544
297.254168,0.693254,0.082719,0.581958
297.358957,0.185507,-0.105737,0.260645
297.463745,-1.110171,-0.355109,0.077597
297.568535,0.308942,0.168371,0.412413
297.673323,0.445627,0.371020,-0.165036
297.778112,0.121327,-0.232071,0.000096
297.882900,-0.036528,0.256574,-0.484559
297.987690,1.557965,-0.157688,-0.263591
298.092478,-0.910671,0.037242,0.958860
298.197267,0.221395,0.150235,1.370813
298.302055,0.509978,-0.429976,-1.148376
298.406845,0.213705,-0.181455,2.127591
298.511633,-0.571446,0.312801,-1.056919
298.616422,0.332215,-0.550343,0.118151
298.721210,1.141274,1.052241,-0.649699
298.826000,-0.077926,-0.338137,0.839200
298.930788,1.063218,-0.324217,0.938413
299.035577,0.585870,0.633563,-0.917752
299.140365,0.196642,-0.005311,-0.333795
299.245155,-0.229811,-0.071694,0.489313
299.349943,-0.094657,-0.782327,0.838981
299.454733,-1.297497,0.212514,-0.229446
299.559520,1.162181,0.311468,0.026665
299.664310,0.391679,-0.202714,0.353024
299.769098,0.728311,0.024087,0.445326
299.873888,0.942197,0.115920,0.351460
299.978676,1.205886,0.524521,-0.841117
300.083465,0.399973,-0.176020,0.709135
300.188253,0.245621,0.036302,0.041979
300.293043,0.500426,-0.556186,1.016175
300.397831,-0.487900,0.514665,-0.613667
300.502620,0.142265,-0.166345,0.416143
300.607408,0.056941,0.443037,0.500760
300.712198,1.188234,-0.214883,0.508306
300.816986,-1.153345,0.244013,-1.026836
300.921776,1.330887,-0.336397,1.225061
301.026563,-0.441408,-0.147001,0.395359
301.131353,0.502381,0.297942,-0.538536
301.236141,0.368310,0.146487,0.217945
301.340931,1.018949,-0.096443,0.349357
301.445719,0.392179,0.233852,0.097052
301.550508,0.792049,-0.173152,0.243454
301.655296,0.407673,0.150004,0.530497
301.760086,0.816171,-0.013180,-0.023207
301.864874,-0.861442,-0.058127,0.374501
301.969663,0.637406,0.293028,-0.275268
302.074451,0.091048,-0.318427,0.864643
302.179241,0.311336,0.203582,0.178391
302.284029,0.040406,-0.221814,0.241859
302.388819,1.197002,-0.039273,0.418781
302.493607,-1.665053,-0.390956,0.175085
302.598396,-0.512667,-0.049747,0.121394
302.703184,-1.181306,0.275532,0.490173
302.807974,0.649922,-0.080630,0.207390
302.912762,2.214857,1.011191,-0.343563
303.017552,1.700706,-0.220772,0.288651
303.122339,0.637313,0.141776,0.497375
303.227129,0.099405,-0.179356,0.770496
303.331917,-0.329362,-0.969695,-0.476012
303.436707,0.329098,0.252907,0.979623
303.541495,-0.264249,0.053906,0.007959
303.646284,0.472982,0.103058,0.109186
303.751072,-0.671336,-0.471089,0.308224
303.855862,0.048349,0.168344,0.826841
303.960650,0.578379,0.129852,-0.095319
304.065440,0.238014,-0.321336,0.274799
304.170228,0.751296,0.496046,-0.019568
304.275017,0.939528,-0.133477,0.609437
304.379805,-0.003847,-0.128174,0.356674
304.484595,-0.649493,-0.190618,0.663298
304.589383,1.199221,0.120843,0.800393
304.694173,0.709045,-0.116974,-1.133642
304.798961,0.244691,0.095610,0.708790
304.903750,-0.548553,-0.037999,0.176708
305.008538,0.214768,-0.726750,0.537791
305.113328,-0.524591,-0.012173,0.604748
305.218116,-0.442898,0.260710,0.611586
305.322906,0.805359,-0.183054,1.115025
305.427694,2.607070,0.524174,-0.583349
305.532483,3.394897,0.250484,0.591048
305.637271,2.162637,-0.449970,1.209454
305.742061,2.000595,0.085114,1.237854
305.846849,1.254286,-0.082321,-0.062824
305.951639,0.295642,0.090909,1.176044
306.056427,0.515708,-0.192427,0.590631
306.161217,0.690924,0.070718,0.559574
306.266005,1.395611,-0.179301,-0.529435
306.370794,1.770421,0.612550,0.710860
306.475582,0.507903,-0.628265,0.800028
306.580372,0.354245,0.333636,0.572516
306.685160,1.409268,0.378005,-0.407048
306.789950,2.201652,0.583324,0.783829
306.894738,1.390176,-0.120954,-0.525923
306.999528,2.007893,0.172548,1.001146
307.104316,2.849598,0.525378,0.093133
307.209106,2.103291,0.849016,0.791362
307.313894,2.472038,0.491946,1.460357
307.418683,2.821112,1.722881,-1.052740
307.523471,3.389454,1.724779,0.759829
307.628261,2.318990,-0.480115,2.032766
307.733049,1.406028,1.326064,1.740078
307.837839,0.392366,-1.432443,1.703394
307.942627,1.860687,0.003205,-6.070931
308.047417,1.091401,1.139201,-0.241779
308.152205,0.656782,1.003196,-0.846001
308.256995,1.295389,0.434696,-0.778210
308.361783,0.007772,-2.100870,2.393087
308.466572,-2.356479,0.797021,-0.568501
308.571360,0.688895,-0.537785,0.835135
308.676150,-1.402386,-1.178319,1.540329
308.780938,-3.443131,-0.930245,0.461813
308.885728,0.106603,0.864835,-0.492998
308.990516,-0.328088,-0.098186,0.333120
309.095306,-0.375677,0.757873,-0.929939
309.200094,0.181224,0.004735,-0.555307
309.304884,0.756279,0.594012,-0.563005
309.409672,0.688662,0.151781,-0.416706
309.514461,-0.536034,-0.073295,0.542421
309.619250,-0.820848,-0.352445,-2.368363
309.724039,-1.224961,-0.624316,2.541245
309.828827,-1.070558,-0.315936,0.091105
309.933617,-1.891463,0.452004,-1.923178
310.038405,-1.402878,-0.271794,1.375951
310.143195,1.250359,0.852012,-0.161562
310.247983,1.048913,0.403124,0.990799
310.352773,1.079116,-0.399566,0.009831
310.457561,-0.717079,-0.600228,0.921137
310.562351,-0.672813,0.001628,0.580651
310.667139,-2.095138,-0.626592,-1.146431
310.771929,-0.752651,0.246869,0.018780
310.876717,-0.037180,1.067856,-0.774348
310.981506,-1.136073,-0.522409,1.581914
311.086295,-1.673665,-0.933839,0.913834
311.191084,1.649021,0.321539,-0.635684
311.295872,0.520116,0.491707,-0.469436
311.400662,1.319074,-0.403502,1.117215
311.505450,-1.836478,-0.298771,0.815348
311.610240,-0.938409,0.338899,1.504025
311.715028,-0.728512,-0.970695,-1.723438
311.819818,-2.238809,0.089081,1.959152
311.924606,0.187117,0.338366,-0.404040
312.029396,0.003531,-0.141836,0.546187
312.134184,1.950195,0.466150,-1.562558
312.238974,-0.584933,0.338762,1.325225
312.343762,-0.988960,-1.422853,-0.425054
312.448552,-0.791156,-0.349214,1.112040
312.553340,-1.717174,0.340803,-0.677409
312.658130,1.016071,-0.376507,2.575526
312.762918,-0.979330,0.472572,-0.418092
312.867707,0.060142,-0.426383,-0.863000
312.972496,-1.093327,0.518204,-0.025042
313.077285,-0.769647,-1.148438,0.481527
313.182073,-0.343624,0.478260,1.084206
313.286863,0.181147,2.077038,1.020154
313.391651,0.066877,-2.221451,-3.377801
313.496441,-0.128947,-0.777415,-1.714913
313.601229,0.050292,1.974508,-2.980513
313.706019,-0.961409,-1.419820,2.037904
313.810807,-0.521433,-0.773995,-0.475715
313.915597,-1.135635,0.283772,0.098615
314.020385,-2.534481,-1.573312,1.888652
314.125175,-0.742772,0.446459,-0.308942
314.229963,2.486239,0.589295,0.311041
314.334753,0.328068,-1.651432,-1.781987
314.439541,-0.502681,1.800043,1.860398
314.544331,0.495563,-0.672591,0.984740
314.649119,-0.613306,-1.565475,-0.143279
314.753909,-2.145777,1.815162,1.504164
314.858697,-0.111741,-1.329909,0.630276
314.963487,0.838967,1.256558,-2.227684
315.068275,0.715571,-1.016306,0.496647
315.173065,-1.026720,-0.301308,1.109720
315.277853,-3.108483,-1.824375,-1.254553
315.382643,-1.181712,1.378701,0.335213
315.487431,0.073790,-0.601539,1.481028
315.592221,-0.062120,0.401347,0.448510
315.697009,1.341609,0.221089,-1.567481
315.801799,-0.561302,0.321713,1.634782
315.906587,-0.252555,-0.483963,1.075453
316.011377,0.165968,-0.193905,-1.372565
316.116165,-1.659283,-0.452462,0.022828
316.220955,0.399001,0.033258,0.035750
316.325743,0.450951,0.005415,-0.533969
316.430533,-0.518749,1.395688,0.020202
316.535321,0.983177,-1.270387,1.235312
316.640111,-1.041803,1.103459,-0.868552
316.744899,-1.953718,-1.039974,1.495198
316.849689,-0.036801,0.110960,-0.351105
316.954478,0.301276,0.328729,-0.308153
317.059268,0.181684,0.226650,0.445060
317.164056,1.311904,0.042032,0.648687
317.268846,0.795294,-0.157838,0.329473
317.373634,-1.392452,-0.236668,0.543727
317.478424,-0.773175,-0.868591,1.625936
317.583212,-0.447269,0.470901,-0.744931
317.688003,0.154536,0.484860,0.528642
317.792791,0.182176,0.127909,-0.411087
317.897581,-0.683149,-0.323925,1.234685
318.002369,-0.088356,-0.263384,-0.651108
318.107159,0.169058,-0.101641,1.305871
318.211948,-1.008957,-0.567436,0.103883
318.316738,-1.587503,-1.035422,0.032393
318.421526,0.097806,0.696762,1.068761
318.526316,0.273598,0.867058,0.009316
318.631104,0.164577,-0.056379,0.266912
318.735894,0.540555,-0.489497,0.776373
318.840683,-0.476823,0.325285,0.406056
318.945473,-0.437374,-0.398142,-0.019102
319.050261,-1.170073,-0.474815,0.687434
319.155051,-0.761163,0.356430,-0.179971
319.259840,-1.146403,-0.621636,0.348123
319.364630,-0.225924,0.286852,0.229993
319.469418,0.084595,-0.169119,0.689347
319.574208,-1.174019,0.029948,-0.579220
319.678996,1.311491,-0.095105,0.124703
319.783786,-0.117838,-0.211625,0.333473
319.888575,-1.055780,0.114258,0.685366
319.993365,-1.995820,-0.330525,0.558187
320.098153,0.768820,0.877096,1.412293
320.202943,-0.484978,-0.688968,-1.093418
320.307732,0.995636,-0.120671,-0.651556
320.412522,-1.275764,0.118267,0.702380
320.517310,-1.176239,-1.521529,1.281784
320.622100,-0.412769,0.119797,-0.762016
320.726889,-0.390488,0.469268,0.500053
320.831679,0.105593,0.520412,-0.160879
