,Acceleration x (m/s^2),Acceleration y (m/s^2),Acceleration z (m/s^2),Gyroscope x (rad/s),Gyroscope y (rad/s),Gyroscope z (rad/s),Linear Acceleration x (m/s^2),Linear Acceleration y (m/s^2),Linear Acceleration z (m/s^2),labelnormal,labelturnright,labelturnleft,labelbrake,labelstop,labelaccelerate,Latitude (°),Longitude (°),Height (m),Velocity (m/s),Direction (°),Horizontal Accuracy (m),Vertical Accuracy (m),pca_1,pca_2,pca_3,pca_4,pca_5,pca_6,pca_7
0.0,0.8791736405206052,7.40802220142032,7.227821462364863,0.037871069396479516,0.11888805529200622,0.0006203422591869259,-0.9238780005857672,-0.4787116825530884,0.6554058679622196,,,,,,,52.339763000180646,4.952954004344412,4.298482237931007,1.6699964842977468,272.3001120166687,3.790091999999757,2.4999999999996563,-0.517150327570671,0.2006656291991827,-0.07579404451604746,-0.24374604889899024,0.02690002970616425,0.2122575308655089,0.2278931903641674
0.25,0.8817200841305288,7.404711604362985,7.2327600943206685,0.03769768068358068,0.11806414143601349,0.0012944076396304062,-0.9210255286535434,-0.47703061601757046,0.6535416330743034,,,,,,,52.339762999048226,4.952953886231887,4.298898588250209,1.674539741207047,272.28505246369514,3.790091999999554,2.4999999999999063,-0.517233871015526,0.20037134141689436,-0.07555767503689305,-0.24295843285047994,0.02674574866839985,0.211561683089242,0.22789514229568736
0.5,0.8776369818177899,7.412894980720175,7.221006675859042,0.038172378497148204,0.12010148667727301,-0.0002566469881406766,-0.9287654043469602,-0.48126582207189966,0.6579648004390276,,,,,,,52.339763001996644,4.952954169179786,4.297850252484544,1.6641763872275075,272.3107517234978,3.790092000001221,2.50000000000073,-0.517060614668571,0.2010956701928582,-0.0761716063298004,-0.2449539700042435,0.026980707670921464,0.2132723405457127,0.22813535757920483
0.75,0.8764604070418406,7.404822600374959,7.231136379658114,0.03755925222247246,0.11794085020722891,0.0009685251876701891,-0.9183924533679414,-0.47656220778899017,0.653575209332895,,,,,,,52.33976299696306,4.952953861474333,4.29902323985338,1.672633459472704,272.3149218053238,3.790091999998368,2.499999999998929,-0.5171525226208751,0.20033351763961207,-0.07538587167549018,-0.24260661031936892,0.02708922761639549,0.211457224607138,0.22724825171559782
1.0,0.8866234614117324,7.407319786526485,7.230860278161985,0.03802931267950883,0.1189403124837875,0.0011636498586992299,-0.9269697315950691,-0.47908075071910894,0.6550795208444506,,,,,,,52.33976300289087,4.952954019206668,4.298399222359936,1.6733128306398664,272.2576803751689,3.790092000001403,2.5000000000008424,-0.5172734627196625,0.20066942771184326,-0.07599326090623379,-0.2441044148415291,0.026410989781498955,0.21228936332733986,0.22876805004555292
1.25,0.872973188049216,7.4134748225666875,7.218857269176465,0.03807198500102336,0.1200423931823401,-0.0006026616232194913,-0.9268768028138299,-0.48108434369017944,0.6581628640024254,,,,,,,52.33976300007102,4.952954159269259,4.297853305509522,1.6619050486906877,272.3376930700755,3.790091999999432,2.4999999999999014,-0.5169798657554778,0.20110119998518883,-0.07604301625186394,-0.24472779886237922,0.027300798984830975,0.21326173426084166,0.22757351812169452
1.5,0.8742594551616825,7.399537845887766,7.237392699533544,0.03714325599048513,0.1166172662463455,0.0015800530824552905,-0.9106498337830113,-0.4731767744998698,0.650731776152932,,,,,,,52.339762993015626,4.952953657135011,4.2999485448729615,1.6776541590255647,272.3270129194739,3.790091999999559,2.4999999999991775,-0.5171904766401777,0.19981901797322518,-0.07480447326168693,-0.24093619220444756,0.02721106734571457,0.21022072510611992,0.22654700582572487
1.75,0.9057632579121317,7.417111812141771,7.223580844206554,0.03921101235451717,0.12182895471291694,0.001062336609384999,-0.9498476245373964,-0.48727178049392506,0.6605857951911381,,,,,,,52.33976301758622,4.952954470123103,4.296252874173236,1.6698617693611988,272.1450653165009,3.7900920000011045,2.500000000001568,-0.5174485579178882,0.2017582758600958,-0.07768018157029867,-0.24848209003579483,0.025196733697296785,0.21503274378429763,0.23193366551523492
2.0,0.8270049038424219,7.400690662276194,7.222545848776935,0.035987300159727474,0.1158062542842317,-0.0020942032619495764,-0.8849677687671529,-0.46748268081884603,0.6507296701950992,1.0,0.0,0.0,0.0,0.0,0.0,52.339762970122216,4.9529535058715,4.301308789712576,1.6572742450562743,272.61539311232525,3.790091999998921,2.499999999998096,-0.5163905071217082,0.19952499870169876,-0.07295934527801418,-0.23717162768492728,0.030260531212585824,0.2090424814241552,0.22092463506157348
2.25,0.43064055768235,7.269905993922133,7.279580353491452,0.016962013402021383,0.0754794062545094,-0.012312578904703003,-0.4980480721284307,-0.3373895830530759,0.57657934140658,,,,,,,52.339762707277785,4.952947067902253,4.335461349061339,1.6460420382252392,274.9803571022378,3.790092000000494,2.5000000000018177,-0.5117207163642644,0.18382355473872325,-0.044445358032545,-0.1663908552201543,0.05509579571835096,0.1682571381440506,0.16230887700970978
2.5,-0.2395286338451675,7.114446318882685,7.293642247726822,-0.010665376811721137,0.02367710748547746,-0.041130256338372896,0.07711987157616207,-0.15388380600638862,0.48661875844388647,,,,,,,52.339762286905355,4.952939115199564,4.382108963241507,1.53614374387619,279.07697421230944,3.7900920000001705,2.4999999999985936,-0.502552915970696,0.1640485863336588,-0.0019324367173564304,-0.06431818956418692,0.0979573217303758,0.11372557929715894,0.06922934906066262
2.75,-0.6213959974115736,6.986688624512716,7.347704412170407,-0.029534264089281448,-0.017112096655025614,-0.04748683795500304,0.4501246617925792,-0.03064237509492524,0.4124628354718251,1.0,0.0,0.0,0.0,0.0,0.0,52.33976204515706,4.952932002831293,4.415739040837326,1.5519809729348035,281.24503374707695,3.7900919999996505,2.5000000000008136,-0.49855986902954685,0.1478262360665436,0.025076911883547336,0.003302342889953699,0.1211279215786939,0.0738736971977404,0.01136667442964526
3.0,-0.47493304264026737,6.940777388010437,7.420077349740747,-0.03138153222291234,-0.03365314073622822,-0.0041294551226105786,0.4097403278419436,-0.043013743413605025,0.37520744696414143,,,,,,,52.339762213303345,4.952923427776504,4.425919377042168,1.8898721937903762,279.34647897696516,3.790091999999853,2.4999999999998495,-0.5060981440161917,0.13598878465807251,0.018459700814930535,-0.004904801379353127,0.10242323494630012,0.06579768059583913,0.015992673760583925
3.25,-0.2088175223835589,6.959962014161703,7.4332198283208015,-0.027296696541525126,-0.036367145554166015,0.05040749936399094,0.21569054271611166,-0.11690800653410977,0.36519737480985726,,,,,,,52.33976252312371,4.952914225636984,4.424762431609605,2.3022390284342644,276.3155873890181,3.7900920000010734,2.499999999999579,-0.5166344172791408,0.12724615816835388,-0.0012858982690492106,-0.04507951125775299,0.07208574964501258,0.0736948942128672,0.03589453358356358
3.5,0.06866261667774871,6.893996130741567,7.563998356419173,-0.02691851967286232,-0.05551499584870338,0.10604507081499041,0.12407519248099605,-0.13959436197931266,0.3220114305621362,,,,,,,52.33976274198483,4.952906023650294,4.432743464472723,2.705192974256191,273.6384571722774,3.790091999998161,2.5000000000007563,-0.5264224491502508,0.11538208588246605,-0.01150704646532932,-0.059384840416222176,0.04649520986600369,0.0668545645170749,0.054876735529820274
3.75,0.23212202304150192,6.917419639776146,7.552271953589837,-0.024934668892215545,-0.05695802247568763,0.1490998972723392,-0.014637718241979954,-0.19439191934909397,0.31183821366864584,1.0,0.0,0.0,0.0,0.0,0.0,52.33976299528325,4.952896799760427,4.434437169696943,3.053994266227091,271.3311144990206,3.7900920000019225,2.4999999999992193,-0.5348631941658427,0.10646106320152689,-0.026752095206117956,-0.09048588651926887,0.021929352770953918,0.07106491164010198,0.0639810595680256
4.0,-0.0003507960861155162,7.179850491818913,7.170639708103249,-0.020990096594992694,-0.008474914635309649,0.14156119396840233,-0.22800393013876127,-0.3074864842428883,0.38651267731623956,,,,,,,52.33976326205044,4.952885351054331,4.416189990341316,3.1370296339532073,270.9774339839635,3.7900919999989275,2.500000000000589,-0.5365112246966798,0.10701289261519277,-0.05014376113121998,-0.15512437755538835,0.006942506075743409,0.09917722467129521,0.03901063924759809
4.25,-0.3564022702511761,7.4658281684860075,6.748716849536773,-0.017869302262609507,0.04973912168616527,0.11460643146081391,-0.400806036291639,-0.4019887181295779,0.46947181742901406,,,,,,,52.33976348723813,4.952873479722872,4.396536802430629,3.120742389999611,271.5262722185147,3.790091999999503,2.499999999999655,-0.5353285004946378,0.10878023813537066,-0.06972422720262765,-0.21377256720602444,-0.002957823286709328,0.12563187409968327,0.00397393499027037
4.5,-0.667084452726484,7.787640207473458,6.270165801978075,-0.013838006930593888,0.10763292757526806,0.10151917569865912,-0.6395482534038369,-0.5332898521893066,0.5615154903958576,,,,,,,52.339763757789584,4.952861727484106,4.3779664923804065,3.1770426465855595,271.4111192358582,3.7900920000022142,2.500000000000238,-0.5362582901732419,0.1105660960802997,-0.09629484368601307,-0.28865242725133144,-0.01783993890001353,0.15883899971430657,-0.029401950092293468
4.75,-0.9362297313287808,8.016616265320456,5.931434216407593,-0.010167750758908974,0.15543480813418958,0.08256984433558737,-0.7972779577243148,-0.62198434724397,0.6323650841861059,1.0,0.0,0.0,0.0,0.0,0.0,52.3397640000258,4.952850039942552,4.356856139032065,3.2041490318043944,271.5652295817077,3.790091999996689,2.4999999999996674,-0.5362029534965812,0.11139033016838121,-0.11389242203330827,-0.3401607334182375,-0.02707444378996507,0.18387058821519556,-0.055423296248288824
5.0,-0.9283557583119328,7.795047469764619,6.203357358876028,-0.004806976241775802,0.14989330471945086,0.05794333869243232,-0.6055663177790376,-0.5495768131402731,0.6167597764949132,,,,,,,52.339764193217434,4.952839733565403,4.334756940586836,3.255770571349771,271.8409022183911,3.7900920000032716,2.5000000000005493,-0.5354087115178248,0.10565370695467773,-0.09431002307728313,-0.2934049482623194,-0.013569858408589009,0.18130568828311977,-0.04080712557298048
5.25,-0.8072727238464059,7.428546141294176,6.653485460098743,0.002096128230415347,0.12319963668644102,0.036863701976917455,-0.32137973712209505,-0.45194168685157493,0.5829501295039227,,,,,,,52.33976440878046,4.952829735608786,4.306935092450632,3.3420204047842765,271.85459323373414,3.790091999997907,2.499999999999341,-0.5350658078426531,0.09874871788512775,-0.06503981847863151,-0.22062566193011335,0.01003755679393924,0.17750304698056435,-0.011400917503988028
5.5,-0.7739758233093652,7.195889420775989,6.956910270518755,0.006849819196271102,0.11377517845689228,0.013656193529236409,-0.12767019288518505,-0.3742825088098166,0.5594277506464768,,,,,,,52.33976459612056,4.9528191423931665,4.282274531154764,3.392770980814089,272.0875830707269,3.790092000000384,2.5000000000004947,-0.5343347611931778,0.09276661606837422,-0.04460725250342984,-0.17084012035779306,0.02345250016450484,0.17250495782610195,0.005180835903274591
5.75,-0.6920453626714823,6.854980493007763,7.378191920691803,0.013666449470021802,0.09720621522437745,-0.011032801373672296,0.14689900702681816,-0.2664954195299354,0.5278849067257008,,,,,,,52.339764792495004,4.952809608734721,4.261800250454471,3.463111048814425,272.29863208828203,3.7900920000009903,2.499999999999958,-0.5336650143765417,0.08564899660749252,-0.016791787094593336,-0.10214409998715451,0.04231346237079756,0.16550768870339957,0.0317783925535336
6.0,-0.6316577926322016,6.593803998143779,7.6845532275769015,0.019318594351882098,0.07401685113620561,-0.03141534626392101,0.3599890397271748,-0.21658170503015406,0.5127139976227796,1.0,0.0,0.0,0.0,0.0,0.0,52.33976502225454,4.952798460662821,4.225809220994084,3.5353247001008685,272.29760482459125,3.790091999998689,2.499999999999485,-0.5331768591622261,0.08065985230617377,0.0056618700531301,-0.04822119149618945,0.06610263902113961,0.17059770135011737,0.04970763623412715
6.25,-0.6831700805717583,6.65283075907481,7.568989831576895,0.019465274590397163,0.03529105666762042,-0.04498124998320303,0.37378840851996514,-0.3232440523442448,0.536097581508047,,,,,,,52.33976529783628,4.952781929639889,4.148243815708524,3.593370510493296,271.87549537540093,3.790092000000466,2.500000000000926,-0.5329168596748884,0.08033847757853156,0.013009508444279165,-0.038413105206008644,0.09737621378888728,0.20318018869457152,0.0321282448879042
6.5,-0.7662574937871697,6.7501150677949,7.286831897370106,0.02150527349051075,-0.03286250175556704,-0.05837918263381062,0.38822010792814077,-0.5565760898055544,0.6120419863521087,,,,,,,52.33976570911767,4.952763117684059,4.034444816855894,3.6752051998179636,271.0510553927676,3.790092000001066,2.4999999999990608,-0.5324429963972285,0.08532598086003396,0.020318803132074018,-0.03506286380225705,0.16039474627597086,0.27565376271527736,0.00405004071579301
6.75,-0.8088949090145555,6.82502316183288,7.167533087239398,0.020715068196329844,-0.06924176659618866,-0.06612516996229885,0.37176352108970895,-0.6547618849231555,0.6263488380784351,1.0,0.0,0.0,0.0,0.0,0.0,52.33976595953809,4.95274640543018,3.9577240060607237,3.7373596812710947,270.5400415060524,3.7900919999975677,2.5000000000004823,-0.5325649307456825,0.08431496081494728,0.025083775271748536,-0.030257224986699832,0.1851338486856992,0.30270379449918183,-0.014390262883523231
7.0,-0.8345898238125694,7.031510140303206,7.126038801143272,0.011437287001612595,-0.044135465839355015,-0.04907335133538198,0.1814088358649152,-0.4897083637123361,0.5032008678230888,,,,,,,52.339765780302216,4.952732039024048,3.9449883992130346,3.76812302937472,270.3481504846686,3.790092000002937,2.500000000000291,-0.5347439122995461,0.06911215426918627,0.01898928815199275,-0.04071747188119225,0.11753902726928603,0.23027797925566837,-0.036590215128966
7.25,-0.8762559304363704,7.256164049338787,7.074377224051462,0.0009901720800235742,-0.003202339624645156,-0.019534347695786946,-0.05900594756995238,-0.2661937625145669,0.35265296444478317,,,,,,,52.33976548397298,4.952718529738054,3.9455629627485718,3.7949337114634454,270.18059943159875,3.790091999997684,2.4999999999990115,-0.537428482460417,0.05099501057897882,0.008188112389297484,-0.060032419055518677,0.027960876183002418,0.13644334215341958,-0.061818940411074844
7.5,-0.8487311119823349,7.443381980727198,7.162474345424017,-0.010486967689237101,0.0346301355294376,-0.000207798042860662,-0.26615855362593965,-0.03562223804634943,0.19446909497823972,,,,,,,52.33976525333068,4.952704831938,3.950054969512033,3.82333560660199,270.07149541589536,3.7900920000008753,2.5000000000012315,-0.5401610318998439,0.032657953302622174,0.0011153560390049465,-0.06770072846377836,-0.05802419213920036,0.04068422413625421,-0.07562403294410522
7.75,-0.9261629062154025,7.674454721248524,7.019877456805863,-0.018859362151359173,0.06509534095471481,0.02408211088545662,-0.4782650603383772,0.1320919523109525,0.07470471583980187,1.0,0.0,0.0,0.0,0.0,0.0,52.339765002908585,4.95269090225097,3.9379086398465413,3.8479252256253185,269.8889012724836,3.790092000000787,2.4999999999991402,-0.5422332610860149,0.017486008951359648,-0.0077820772196735485,-0.0866311885681302,-0.13032975065310975,-0.03248681969815882,-0.10539267771166896
8.0,-1.26312035065718,7.8942836240677146,6.339315877823125,-0.016110285452161276,0.0745276594959836,0.060675098088086715,-0.6462101345068347,0.05532505121094695,0.10288915654880357,,,,,,,52.33976474924134,4.952677029673352,3.87705775562243,3.8428182269761244,269.67332411653047,3.790091999997982,2.5000000000000737,-0.5413775933695365,0.01770310481145753,-0.025276984065706064,-0.1414970023694829,-0.14078128961643302,-0.015885616737990965,-0.1633122986613324
8.25,-1.6367338420820359,8.102384316252659,5.522805282536727,-0.009595365655087505,0.07247553836259603,0.09219185909543891,-0.7649374292231501,-0.1022479646793217,0.17775741007032472,,,,,,,52.33976449203951,4.9526630804980645,3.8022115951906934,3.827494017038381,269.4585338763427,3.7900920000024696,2.5000000000007176,-0.5395467693239057,0.023066801077872654,-0.041117849094238185,-0.19758708551743331,-0.12699507462540635,0.031380695555868,-0.22382393471549378
8.5,-2.071066234640221,8.377768211718845,4.669674917500074,-0.005203896170324509,0.07669285148171555,0.1304421929425927,-0.9465995799347039,-0.21716786640090757,0.22840830420925648,,,,,,,52.33976426854092,4.9526488187236195,3.7287234672051444,3.821165782930363,269.2187516885551,3.7900919999978866,2.4999999999989155,-0.538240160057705,0.02453731477481527,-0.05939004816957577,-0.26001940131745155,-0.129657903462801,0.06107783127152153,-0.29742424989311944
8.75,-2.343871063985512,8.53277366067736,4.0352470328783365,-0.0007362093661272821,0.08038599823247256,0.1618463095461571,-1.059324882054644,-0.32527244885625656,0.27615604867185944,1.0,0.0,0.0,0.0,0.0,0.0,52.33976397456536,4.952635233473334,3.6667795297186614,3.810735146192667,268.99670537260255,3.7900920000012794,2.500000000000846,-0.5370375721350792,0.027873004625226627,-0.07451661139621477,-0.3083602218529189,-0.1268295624871901,0.09146220536445078,-0.3426243196143233
9.0,-1.9390316916854182,8.35057440402616,4.207773728399479,0.003389856700212148,0.06589714024350143,0.1422862131475844,-0.8639429693442147,-0.29918745017033677,0.2663341690254103,,,,,,,52.33976342447826,4.95262377546428,3.648128289910942,3.823406997292845,268.6149169505508,3.790091999999616,2.4999999999998885,-0.5375407941640519,0.028712207224605494,-0.05628330920537667,-0.2600119012877872,-0.11992567033297732,0.09478357009347546,-0.2853516403293746
9.25,-1.2927805045655252,8.028341049319398,4.722714344409999,0.006150595665182364,0.05069970139016431,0.11194242094042185,-0.5870202520631927,-0.20732323670369632,0.22918683717753405,,,,,,,52.33976278569057,4.952613170128902,3.6469495206605753,3.845922708285885,268.1772829843216,3.790091999999818,2.499999999999224,-0.5388648466108305,0.027938129080408804,-0.030012317282783488,-0.18344923228463816,-0.11815896988508304,0.0815119257834985,-0.19057726587098245
9.5,-0.846396295094776,7.796607445461007,5.005429288119658,0.008905105583506668,0.04324686918688606,0.09814106169354014,-0.4037640793634272,-0.17445753962567834,0.21082941366594812,,,,,,,52.33976219652128,4.952601896007885,3.6371195705427013,3.85353954393417,267.82216505844036,3.7900920000002376,2.5000000000014935,-0.5395249056418954,0.029509171259389972,-0.016229829528941014,-0.1405647891794085,-0.1151090838172467,0.08012429613678913,-0.12422050844764554
9.75,-0.2705837158295188,7.546854993733919,5.342620265722988,0.013740967411303893,0.020147739797608324,0.06173939319689567,-0.11673527873266139,-0.10642260551821332,0.18810596889553338,,,,,,,52.339761625242126,4.952591061856144,3.624045564734425,3.8781369699839363,267.38861859274107,3.790092000000232,2.4999999999981712,-0.540470188387298,0.028598328197981783,0.014050422341497337,-0.06128480507325814,-0.10678610070594848,0.07648208827736218,-0.04309099482239898
10.0,0.23916553796246848,7.250390717987214,5.791245493355713,0.014818824074058358,0.01698024116949674,0.05051841690699935,0.06767965916027255,-0.04592266916673868,0.1583027142644912,1.0,0.0,0.0,0.0,0.0,0.0,52.339760953384555,4.952579933252988,3.6238855287185463,3.8869850454973323,266.9916048143615,3.790091999999011,2.500000000001726,-0.5415170246843259,0.02990767794648347,0.026643228492290283,-0.016325308162383537,-0.10845782560278966,0.06627034780453277,0.03502596455582913
10.25,0.3252441234708398,7.025040720542346,6.2352014466096355,0.006799933066275768,0.06048774449973644,0.09892518940165831,-0.06355125366285429,-0.03931839555477915,0.10668291571208716,,,,,,,52.339759813656215,4.952566621229824,3.66273334219925,3.8487647855238665,266.533096944472,3.790092000001694,2.4999999999987916,-0.5426197825248973,0.03688039151501024,-0.004344411000742822,-0.0697653644735709,-0.13338978508211788,0.0442853081101132,0.06322830423262796
10.5,0.3456592357092761,6.770663607095752,6.80857722081314,-0.003946320712873652,0.11129308291562404,0.15594238452774659,-0.24116574779540992,-0.014677758121497951,0.04630207276867322,,,,,,,52.339758426475555,4.952552791513253,3.7161259092010255,3.8058197218046734,265.94307378300556,3.7900919999980225,2.500000000000406,-0.5440480836368872,0.04442000146518801,-0.04061609620370604,-0.13443890922244864,-0.1630706814587448,0.014090921252813103,0.08584199269533324
10.75,0.4975756697298071,6.4396119673550345,7.4356520661172665,-0.014533803458610654,0.16930481334485575,0.22220357934711313,-0.41761233678977117,-0.0021091610885309886,-0.0061227512683441855,,,,,,,52.339757324790504,4.9525398004723105,3.760683263884406,3.7596779284328603,265.57419831876473,3.7900920000017346,2.500000000000494,-0.5452858891907981,0.05302977690553882,-0.08385934076379628,-0.2060746260133913,-0.19492358928234466,-0.013167995636052502,0.12986711487175984
11.0,0.43780882434023805,6.330285262338838,7.759872870155117,-0.022524075547470164,0.20598789323904568,0.2608666814738402,-0.5560965367819194,0.011243777492295876,-0.0740491398004155,1.0,0.0,0.0,0.0,0.0,0.0,52.339755932415144,4.952525630863221,3.808753732721802,3.724276469392211,264.91855935891675,3.7900919999988796,2.4999999999987743,-0.5465838026323921,0.05841616031382778,-0.10781149095124698,-0.253532093574366,-0.2199248190271067,-0.03915257507139505,0.13247157438181414
11.25,-0.10841888114798479,6.821403120306208,7.269454726467142,-0.020719325689047784,0.16024675258787016,0.198482860432548,-0.46375671235460236,0.060948609310334814,-0.1851519975509282,,,,,,,52.33975372033667,4.952508729638618,3.8510055662985057,3.7418515348237356,263.37883295531026,3.790092000000483,2.5000000000015574,-0.5481340579064594,0.05160839137717982,-0.058153333903542284,-0.19139953579417487,-0.21578890225094244,-0.06069156317154051,0.02940064875309342
11.5,-0.9546875770525799,7.7611246729045265,6.119936088001098,-0.014115128846885447,0.08280435156539655,0.09142631728418668,-0.31473356469684455,0.09999730838210114,-0.35278407886635604,,,,,,,52.33975129705521,4.952490287754456,3.8963363107053195,3.777659497434765,261.52988760314554,3.790091999999939,2.4999999999986664,-0.5498583458602913,0.03759538512347731,0.022173681828476323,-0.09048255418625195,-0.21024310258216994,-0.08551520290829992,-0.1414386259636904
11.75,-1.5214415153652536,8.251594999034616,5.611405497459169,-0.011227432258520988,0.031593821910557776,0.02363856785555455,-0.20488476917367535,0.14441527407710048,-0.446282627238277,1.0,0.0,0.0,0.0,0.0,0.0,52.33974901949715,4.952473328254078,3.9351280175529846,3.7969674589761673,259.96063797936915,3.7900919999999108,2.500000000000621,-0.551228139893195,0.03129309183039443,0.0751824257458728,-0.023461129351811556,-0.19935339645913963,-0.10065129084154033,-0.2469934044797876
12.0,-1.5503369713032267,7.92051393497105,6.214711463976091,-0.010917664798006904,-0.005068942184890056,-0.000977571454309632,-0.04073283597275032,0.19795230795539331,-0.3559496061391498,,,,,,,52.3397467428215,4.95245948592475,3.9348797479915865,3.811434204996068,258.84538486997565,3.7900920000001608,2.500000000000312,-0.5514594469262385,0.037714812879556955,0.09960801492267153,0.022141688354513415,-0.15304819496357938,-0.07879069034246788,-0.23391756075338832
12.25,-1.426062529341873,7.386657352005177,7.05759725819656,-0.010869126155540317,-0.032474418926264334,-0.010242718192922473,0.10971646564863344,0.23576778487274402,-0.20780419202324132,,,,,,,52.33974450169002,4.952446706076717,3.9266596081953566,3.8198752846687363,257.9526378129326,3.790091999999659,2.4999999999989457,-0.5512894458598466,0.04850682109695216,0.1114830882101382,0.052112725835389395,-0.0989507019909443,-0.043584633596117535,-0.18756905950864639
12.5,-1.3889326034898388,6.880925121906104,7.916962630712938,-0.011448799524820322,-0.0649302295055642,-0.025854749035668378,0.2859765894968493,0.29783699479315434,-0.08456278269101862,,,,,,,52.339742246935,4.95243308366254,3.9218269928012184,3.8295596751029453,256.8484629062675,3.7900920000007243,2.5000000000013043,-0.5512900632007279,0.05778216835675788,0.13062611681935735,0.09290360136732503,-0.045321674197386,-0.01598260254880226,-0.15481271528618787
12.75,-1.314009275174149,6.491389352710471,8.560010719344806,-0.011288094608203897,-0.09212931816720785,-0.03901044335519208,0.4107056699155708,0.3308604582241859,0.028614772822549924,1.0,0.0,0.0,0.0,0.0,0.0,52.339740009038984,4.952420145789641,3.9203255857452883,3.840119789343275,255.9462187413059,3.7900919999988316,2.499999999998986,-0.5514267053357088,0.0661723074018331,0.14443163791201538,0.12261069976740414,-0.0010374204495726203,0.011232119246291989,-0.1238954746920877
13.0,-1.229433549893137,6.639195046880376,8.252460728106476,-0.007018438322876924,-0.08220920429936886,-0.04242277413968646,0.266612746778162,0.2476630293053184,0.09584579410463331,,,,,,,52.33973798392134,4.9524092637565955,3.9622224254238887,3.8308697111264167,255.60680360213607,3.7900920000014637,2.5000000000004583,-0.5523430581943006,0.07337816321752808,0.1331048151576303,0.09132815566257747,-0.001982937624056785,0.03356183346041884,-0.11673822558333502
13.25,-1.1594004434083551,6.996527286568467,7.6077296006700506,-0.0019816725139416504,-0.06191831815689863,-0.04331826926874983,0.03320357638556582,0.13383844641127102,0.12964095544898188,,,,,,,52.339736021015725,4.952398927001795,4.018068718841671,3.817938853371952,255.39312826912166,3.790091999998604,2.4999999999999942,-0.5536961667585464,0.07892936869032938,0.11534669777415434,0.04284045441703264,-0.021198234118643862,0.04898668283337868,-0.12276048620924451
13.5,-1.0568243564542972,7.181880264852421,7.254740011989232,0.0013732115135072845,-0.051593434342159336,-0.04473318703388253,-0.12037278263150306,0.05032097036227581,0.17672395708131264,,,,,,,52.33973397745248,4.952388087171101,4.058870252910387,3.812945678164518,255.12868305159432,3.7900920000009592,2.499999999999897,-0.5547583908146223,0.08460234575986124,0.10306171421480975,0.010945737155501236,-0.027758845677368946,0.06581425730241419,-0.11684136166944825
13.75,-1.0049502979055538,7.483890383011587,6.6746335585850565,0.007812965511124214,-0.034923918158228984,-0.05029322753052188,-0.32728146570751027,-0.06333320004788141,0.24111323873360607,,,,,,,52.33973202187811,4.9523776990730015,4.1131560939948395,3.796809765953739,254.8352418056565,3.7900919999996954,2.49999999999995,-0.5558379680690316,0.09201476691680033,0.08826089997515185,-0.03301302321820222,-0.03698646136845697,0.09019053851119761,-0.12062013389946454
14.0,-0.8893787057039342,7.714497286950906,6.266484491807731,0.01003440327028502,-0.019354955681683023,-0.04671487117302647,-0.5103103193334748,-0.1474932861830182,0.26271969388700667,1.0,0.0,0.0,0.0,0.0,0.0,52.33972997786351,4.952366899205536,4.157210645180483,3.7927693823449236,254.62935897800546,3.790091999999744,2.500000000000185,-0.5571560872391137,0.09639707751399618,0.07239001625426547,-0.07112693773910353,-0.05299669819285886,0.0992602537997613,-0.11631080912654498
14.25,-0.5872434848328301,7.596954439243983,6.549372090579258,0.0014121458764147308,-0.009477200586663567,-0.028419213868674933,-0.5268181386402377,-0.1226729517787436,0.1923095714599178,,,,,,,52.339727526784635,4.952353885573897,4.176223467220025,3.825544588077356,254.7283448080534,3.7900920000004414,2.4999999999999662,-0.5586557586960569,0.0933053415016322,0.061198840170361805,-0.07469389456356865,-0.07424480097955694,0.07135946001391691,-0.07739935070131722
14.5,-0.25552373297491326,7.441365986598613,6.922025603431319,-0.009578807348595186,0.004123176300856615,-0.004314614733295699,-0.5258594191616988,-0.07587297601078302,0.0887499658596044,,,,,,,52.33972496228014,4.952340286957871,4.1942906537150675,3.866174060165999,254.90651395700385,3.7900919999998957,2.4999999999996243,-0.5603519663875072,0.08804690880410138,0.048907879357549436,-0.07578761202968223,-0.10271662955881027,0.031678255552806706,-0.03403287491590056
14.75,0.10745854724406838,7.31082670812017,7.268461589514309,-0.0216127927498279,0.017547499321179907,0.02545689240934744,-0.5755966707910751,-0.04284677994577784,-0.016639030355127482,,,,,,,52.33972255397199,4.952327576349436,4.207130201905827,3.9017052514055988,255.05797831039663,3.790091999999412,2.500000000000749,-0.5621924553471622,0.08327608275827852,0.031836410445610946,-0.08587573649364813,-0.13429411732044916,-0.008352154754478935,0.010323961437682449
15.0,0.35780764690764105,7.186007793508346,7.546521932614773,-0.02845812611935382,0.024630342563051383,0.034509650114446094,-0.529523258197088,-0.006173393680551606,-0.07977541146006915,1.0,0.0,0.0,0.0,0.0,0.0,52.33971992833986,4.952313549554858,4.2325173480050005,3.940955188748288,255.1854536193993,3.790092000001282,2.4999999999992855,-0.5634624170961854,0.07963060020916374,0.027870873793045696,-0.07699395834868811,-0.14976730298996224,-0.03350324786214564,0.04482206881942113
15.25,0.09168870770032157,7.319532802798507,7.1871796526506015,-0.01473369906379921,0.01531884143356318,-0.010863375383929359,-0.3035387803936493,-0.0248754734784987,0.01689456696678472,,,,,,,52.339716751996285,4.952296215739265,4.301831879690415,3.9818292864423808,255.07702341912108,3.790091999998443,2.500000000000163,-0.5630157699713191,0.08199600527083215,0.05651951676087782,-0.039529490112005544,-0.11912490904366477,0.0029910194188315824,0.016971023555479702
15.5,-0.41948769734911395,7.555548610264575,6.554046840880801,0.009655411959288847,-0.011588347920504082,-0.0986671736759723,0.07768061571966431,-0.054958637245219134,0.19891895137017182,,,,,,,52.339713243179645,4.952276745189593,4.398231499909545,4.0287538763391275,254.93509738408127,3.7900920000012697,2.5000000000006835,-0.5614669504654477,0.08639415934759634,0.11095446428831993,0.03218523522034665,-0.0570038052722998,0.07124583051792571,-0.03966607615584611
15.75,-0.6843619990296601,7.667097089261919,6.228787885854454,0.02376169404812209,-0.02043245357301723,-0.14332902801291952,0.30681660178571946,-0.07547859462364077,0.304954884478041,1.0,0.0,0.0,0.0,0.0,0.0,52.3397100840837,4.952259549814272,4.463560588318096,4.067669164528536,254.78487122950497,3.79009199999937,2.499999999998658,-0.5609633884376447,0.08955073869280987,0.13916837960964318,0.06872288928900695,-0.02421289300539203,0.11073583055990617,-0.0652997797580542
16.0,-0.8092292758262893,7.842921459854715,5.9899714872264,0.025704879372946715,0.011018995318567017,-0.07199541551868546,0.08737633358009497,-0.19395690401526042,0.3443117269407181,,,,,,,52.3397077309802,4.952247559065663,4.455798140005184,4.080025567970088,254.3227996985758,3.7900920000001035,2.5000000000014007,-0.5621582810134056,0.09635839536435545,0.0993432586725582,-0.01945225540678554,-0.04515005109675299,0.13144915385292447,-0.08243784865146755
16.25,-0.8510388286686541,7.9967386110271255,5.866010533483638,0.02318582185693559,0.05284703981460981,0.03196337663362825,-0.24818119018624574,-0.33273512563626706,0.3614227437107541,,,,,,,52.33970565048047,4.95223729198972,4.42134910488634,4.084781852269816,253.77904188468523,3.7900920000000045,2.4999999999992717,-0.5638512390709945,0.10403686125895012,0.040496063159353834,-0.139500546121854,-0.08073402036774946,0.14499311934109907,-0.08998196154234349
16.5,-0.8533162407320365,8.066803201946577,5.815048039092081,0.021817943321241384,0.08779991784895576,0.10633525517388633,-0.47328050768684,-0.4285880088412381,0.3768850539582257,,,,,,,52.33970336415576,4.952225853097791,4.406226507356638,4.094168926129713,253.31045720982183,3.7900920000003357,2.4999999999996083,-0.5653082261746072,0.11028157831990784,-0.002072320792132456,-0.2255229335368199,-0.1068913410581973,0.15493773928877105,-0.08825415679862698
16.75,-0.9954153434298793,8.31687196482425,5.516587724550699,0.02151907118356211,0.1290461365644303,0.21142484458639904,-0.8176050074040627,-0.5867247006100856,0.4069150669893511,,,,,,,52.339701231787565,4.952215047950511,4.379997939186922,4.102792651990319,252.80429055741513,3.7900919999991665,2.5000000000014375,-0.5668644476770702,0.11805795428601029,-0.06080253508199264,-0.35119173378900764,-0.141426972920143,0.17487297574440888,-0.11214759662439533
17.0,-0.9547825664651426,8.340376885549832,5.562075874400155,0.019419663937531598,0.16157193520999696,0.28269604332870535,-1.0299004863883745,-0.6738217537815043,0.42051394071449333,1.0,0.0,0.0,0.0,0.0,0.0,52.3396989581799,4.952203978220779,4.358314246655688,4.10857053425858,252.28212747694627,3.790092000001152,2.4999999999981144,-0.5683229391727951,0.12452872694318111,-0.10166086263180249,-0.43156653010399204,-0.16540206260310933,0.183726200736197,-0.10309425542943132
17.25,-0.5699396722892036,7.797697885837972,6.346229453815125,0.016452214176943925,0.15891811836055106,0.24089695541784928,-0.8326575014547308,-0.5622516568606435,0.4083808736309597,,,,,,,52.33969581478469,4.952190571473209,4.3764651855952,4.101687111155422,251.60164026413446,3.790091999998918,2.500000000001549,-0.5690691168798688,0.12814744863846542,-0.07998303328935272,-0.37141288759812796,-0.14738490291521314,0.17004890796692862,-0.026843281062430967
17.5,-0.13180530863974083,7.151162927699608,7.3022525618322085,0.013383306297007225,0.1412878342431473,0.17144668135660637,-0.5346361561350571,-0.4086016498698369,0.3918747783036804,,,,,,,52.33969240513352,4.952176823137611,4.397995209174234,4.088327324947226,250.82008483519593,3.790092000000775,2.4999999999993547,-0.5695566770148038,0.13122960376125337,-0.04130328944443146,-0.2751977516995764,-0.11604409080315829,0.15340344704523928,0.059490741386822296
17.75,0.3857302533206691,6.474085012300498,8.318709254164162,0.00932233802356013,0.13787278145158385,0.11452351200175465,-0.2745703738515714,-0.264580457021211,0.3746455892965721,,,,,,,52.33968937318413,4.952163802117982,4.410474973088749,4.081548983169369,250.15449848666037,3.790091999999413,2.4999999999997042,-0.5703125888581105,0.13442544694087852,-0.013173694174135973,-0.1950452804340054,-0.09400265901367058,0.13516512021421973,0.15995770125265932
18.0,0.6992021041764974,5.956306126156403,9.025867205932903,0.006817043525696781,0.12456945764378059,0.06588362171555931,-0.05919108115292592,-0.14459051205888573,0.3607198624003911,1.0,0.0,0.0,0.0,0.0,0.0,52.33968585948092,4.952149592463235,4.439655599983743,4.068581469510736,249.37203218016566,3.790092000000868,2.5000000000007816,-0.5708836926116609,0.13798159805284832,0.015635702027698296,-0.12507422245784702,-0.07012546779553891,0.12122053267798384,0.22292542108744315
18.25,0.31030792085803177,6.141885070218129,8.563169701845588,0.008071300922469507,0.08552580228171333,0.0793011652051825,-0.09735626414141896,-0.15478314710075486,0.3555546028677125,,,,,,,52.33968114033355,4.952132794956943,4.498792028897878,4.041270750485559,248.2935570411927,3.790091999998423,2.499999999999418,-0.5712052788213231,0.1422139578749911,0.028871855935051375,-0.12482461050559453,-0.05586022011291823,0.12397256327097901,0.149858429380743
18.5,-0.37538602694949164,6.593020784404531,7.51206163807551,0.01044401217045546,0.04757476312311171,0.13405994600260457,-0.3039908940923535,-0.22618004861304947,0.3584180535522862,,,,,,,52.33967587895254,4.952114216711426,4.584595974863839,4.008979202728085,247.10708809007104,3.790092000002291,2.49999999999984,-0.5716196688794507,0.14776341514869237,0.02563505579094283,-0.1740972164586791,-0.05333518993006516,0.13153417433406933,0.0199910486744327
18.75,-0.808806217630454,6.812090737154755,7.013254202887878,0.012086685843950012,0.007788710692198084,0.14666267701307423,-0.3435900348738496,-0.23945627869302885,0.3480794559449984,1.0,0.0,0.0,0.0,0.0,0.0,52.33967108672499,4.952097378442298,4.645939129137516,3.9806075056565677,246.02483992417615,3.7900919999976317,2.500000000001079,-0.5718895257576673,0.151767202177106,0.039752563952437356,-0.17405502554755053,-0.038996293202907796,0.1342344711728639,-0.060137013798346704
19.0,-1.0031833385508273,6.919813214134699,7.1261038345390055,0.013031445151566283,-0.03218803847828904,0.10924528441630485,-0.17871507187726238,-0.19175306947590479,0.2895198872534693,,,,,,,52.339666954163626,4.952084229776696,4.661851772383373,3.957419405565927,245.15333799064484,3.7900920000014438,2.4999999999982747,-0.5720926114948537,0.1511893045926391,0.07534081094644522,-0.11536359122086648,-0.01998410404198614,0.12638871639979968,-0.09397916292413541
19.25,-1.0995960228263442,6.922976418803724,7.4736029974301035,0.01317479105499408,-0.061303631354459924,0.05931366427423657,0.030850267148687067,-0.11645266483948076,0.20778186586933478,,,,,,,52.339663008488806,4.95207215730343,4.671654402382658,3.9346150243258897,244.36688260680376,3.790092000000348,2.5000000000018083,-0.5723843969640767,0.14963370621815394,0.11321938700761913,-0.04523171786434377,-0.0040633779921579165,0.11061465289607549,-0.10592580151450247
19.5,-1.2412645977534567,6.986188734460819,7.761628103807752,0.014437444550362478,-0.10989786231805762,0.0029784020979049504,0.27063187606460226,-0.05382874508886683,0.14827046662924617,,,,,,,52.33965901686869,4.952059430226634,4.6767817336288395,3.9130624634779556,243.51296266140656,3.790091999997737,2.4999999999987215,-0.5723896828977947,0.1483816787979808,0.15881191887380242,0.036701922452569966,0.02418939504220743,0.10447736395148725,-0.12922499999440434
19.75,-1.3587038887737208,7.010119687825168,7.985429288419888,0.014394631603587418,-0.13393053693377216,-0.034083802823404896,0.42974053094237646,0.011399771365169339,0.07354234110623521,1.0,0.0,0.0,0.0,0.0,0.0,52.339654973974156,4.95204702635659,4.693862167694369,3.8897065104950683,242.70914277551,3.790092000003338,2.500000000000394,-0.5728221732730532,0.14749878242083447,0.1899072067848673,0.09131618426370527,0.0346124487606556,0.08863890969166835,-0.14638503148387108
20.0,-1.3141965563136797,6.7016027173079245,8.224863392763993,0.009419825366707556,-0.07666695834656878,-0.015977024958799605,0.33948594793373243,0.09284306559518844,-0.029931082733140046,,,,,,,52.339650769945386,4.952035220432856,4.754058884368861,3.862083680560065,242.0655462324316,3.790091999997134,2.500000000000448,-0.5744447641842482,0.1501963852855378,0.1734420600682723,0.06165778151484676,-0.0011770784659285967,0.04575637498458085,-0.12225656811348913
20.25,-1.240778320792554,6.366426928971948,8.352596616588821,0.0037944080892023616,-0.0034298297884551004,0.01936323260673207,0.17457607152803678,0.16665548167447858,-0.12368174224542546,,,,,,,52.339646496185374,4.952023566918082,4.8234313570870855,3.8363832883641997,241.46244433623227,3.7900920000009872,2.499999999999136,-0.5763768130368436,0.1538314445635955,0.1445849062665422,0.007702192959919866,-0.04812321877979181,0.0006239688489986682,-0.09352680273225376
20.5,-1.1881560302863448,6.039981236739814,8.554639188598697,-0.001967070716187001,0.06560162432372736,0.0483032795096855,0.04471298153809363,0.2526829657687616,-0.23833586238881002,,,,,,,52.33964223475821,4.952011632835816,4.8918384947893845,3.8051780173516723,240.8090672147658,3.790092000001338,2.5000000000007114,-0.5782376941083548,0.15677820886242838,0.121204852365136,-0.035308331929747416,-0.09358680889341285,-0.04851843578547927,-0.06743504733511554
20.75,-1.1383830342089387,5.737957508135141,8.714251858929831,-0.006691413860841467,0.1261832278955579,0.07188140331063923,-0.07731580079514519,0.321808205443238,-0.3250249471879827,1.0,0.0,0.0,0.0,0.0,0.0,52.33963803079176,4.9520001586812965,4.952256087932147,3.782968674546138,240.21705091568435,3.7900919999972267,2.4999999999998805,-0.5799067733549709,0.15987664822116412,0.10013416633595394,-0.07470730113087481,-0.13082044859524797,-0.08779733070030635,-0.04330396768882226
21.0,-1.2004293400086716,5.890896889623601,8.347433020834607,-0.0025302878352609663,0.10837768440749332,0.044077885168435166,-0.026412144135367542,0.32830997874373763,-0.2821446519358406,,,,,,,52.3396341609008,4.951990623324225,4.961063589635033,3.8008147966271886,239.76610365285393,3.790092000002491,2.4999999999994786,-0.5804906922303624,0.15891847358087796,0.11870259254815216,-0.0507732222938256,-0.12366755468120919,-0.07759719402701375,-0.062337361364342134
21.25,-1.3153358581560617,6.15893791045268,7.890795185690884,0.004321506943715135,0.06524244419355206,-0.004183002220595102,0.08943750912702308,0.31745461210782877,-0.20745910804439727,,,,,,,52.33963043997335,4.951981767018856,4.952419476833878,3.830993563674119,239.3666628629376,3.7900919999993468,2.500000000000816,-0.5806099284766527,0.15662728773141438,0.1513186689652647,-0.003123656264417969,-0.0993861326133658,-0.052432496400889136,-0.09500188739634072
21.5,-1.3780013894950964,6.274256800595654,7.598062037577107,0.007877193110757092,0.04966771677839732,-0.029420373765358807,0.12808172609758756,0.3161662042410266,-0.16475413084754845,,,,,,,52.33962656353712,4.951972263720883,4.959989332745042,3.849464448464442,238.94212331875474,3.790091999998362,2.4999999999994094,-0.581137289661641,0.15638052209314063,0.16677898857316423,0.01611457745161839,-0.09022921288888547,-0.04087225611015731,-0.11129708065578328
21.75,-1.4725322252623954,6.56005370159325,7.07126535438902,0.015067387620680635,0.007896176223241418,-0.07807257638288252,0.24798719948409875,0.31678230792963885,-0.09042545848671507,,,,,,,52.33962283373896,4.951963298892399,4.955334049684003,3.877992918537654,238.51137377107955,3.790092000003104,2.500000000000038,-0.581397397744564,0.15358398899131193,0.20072942355813608,0.06567652837976941,-0.07038420624391008,-0.018777171157512436,-0.14317920510115653
22.0,-1.5603448629883112,6.687494578054883,6.806733355708529,0.018698952279744056,-0.012022894591499774,-0.10473964719173108,0.2923438349868926,0.30488445330581665,-0.04486064809680421,1.0,0.0,0.0,0.0,0.0,0.0,52.339618962456335,4.951953927229617,4.957809208342394,3.898483298498416,238.10950158886166,3.790091999996983,2.50000000000047,-0.581778738989558,0.15346271854056426,0.21701117539762182,0.08627354627547447,-0.05658218846601119,-0.003481387613138238,-0.16284503834141442
22.25,-1.4920511182585992,6.481591733650333,7.135127927377679,0.011600505978087004,0.02936290599231236,-0.05536207941602509,0.13759233139114518,0.25844372600182663,-0.055894155054138625,,,,,,,52.33961430246665,4.951942574268439,4.980655126165433,3.888695681499735,237.72156979341997,3.7900920000017218,2.4999999999994125,-0.5830985954807738,0.16119117105150213,0.18104597169573047,0.02146858757620959,-0.07257120284569367,-0.007672436784727749,-0.1374220121971164
22.5,-1.3966629520182277,6.251743049253881,7.573969231200821,0.0027854843192777904,0.07548701126680778,0.004804086051074474,-0.032238169692465964,0.20023191951292849,-0.07224074606338848,,,,,,,52.339609419752506,4.951930886915843,5.001469103993752,3.8739389696922526,237.34197236109327,3.7900919999996967,2.500000000000258,-0.5845172033267035,0.1701388383138004,0.13858647612131839,-0.05318666442426072,-0.09066961261056139,-0.012254959802915293,-0.10572605701332412
22.75,-1.3956749701508953,5.933111674892691,8.059075187666696,-0.005945310882555831,0.12906601869181572,0.06518191361724221,-0.2447228173666557,0.13874600579955926,-0.10414695225152791,,,,,,,52.33960486843661,4.951919687907655,5.0277575485904356,3.863602233952759,236.99620147327718,3.7900919999998854,2.5000000000003055,-0.5856660034710836,0.17943745821591872,0.09201467600414481,-0.1371362447079552,-0.10548452243285195,-0.01835146613235044,-0.08118828009246165
23.0,-1.2085732797647961,5.823322714865956,8.339911970638862,-0.013054651551379443,0.1624503721958637,0.11204185909699253,-0.34912625761354305,0.1017004680876237,-0.09841958215840416,1.0,0.0,0.0,0.0,0.0,0.0,52.33959984004536,4.951907715687758,5.045916402767386,3.8487276887802704,236.56827951771686,3.790091999999246,2.4999999999992495,-0.5873298620948803,0.1865648049574696,0.061600277004534104,-0.18936697265840335,-0.1258660046237258,-0.02207995341036375,-0.04593621007867994
23.25,-0.5285985388991883,6.415723355564045,7.94954726562662,-0.011729362245669974,0.11181218063354215,0.0757754800894281,-0.04592911558678162,0.17254586514906828,0.006137910813570906,,,,,,,52.33959352748357,4.951894043315659,5.033066643784689,3.828148621096351,235.90319534921775,3.7900920000022253,2.5000000000008504,-0.5901019969631267,0.18298681791189664,0.1042330239487883,-0.10222550019878206,-0.14994221775676778,-0.019869670609459385,0.006749904401745034
23.5,0.478913111165055,7.37953207558101,7.1934097851820065,-0.006724364762397757,0.024612331438811606,0.00519262668437748,0.4532717197018175,0.3029444508152408,0.17508303612757342,,,,,,,52.33958645705785,4.9518788985172915,5.010258917711733,3.801730955255658,235.09843896012615,3.790091999996923,2.4999999999994276,-0.5938024461151526,0.1745769497211366,0.17985017162021083,0.0490758900228226,-0.18368750814177123,-0.0161644998625193,0.0780402931833334
23.75,1.1576344570239618,7.964647911587485,6.784489676100759,-0.005346056503265276,-0.026746822896474568,-0.030227474616767974,0.759252109004346,0.37132207955012037,0.278981052961224,1.0,0.0,0.0,0.0,0.0,0.0,52.339580198240306,4.951865434699954,4.9959835832265345,3.781497359346909,234.42850132508727,3.790092000002464,2.5000000000000946,-0.5965294759850298,0.1710659751573071,0.2225095261924924,0.13614473752065673,-0.20708127770245915,-0.013353598185533437,0.1302591239132221
24.0,1.1614351091845574,7.815485514292364,7.122745409805617,-0.008808929675524445,-0.033055988119171445,-0.04840723111454397,0.7738315208739095,0.37135212899666104,0.18533419144458974,,,,,,,52.33957564067294,4.9518562312363175,4.9885591184687685,3.774916044926049,234.01965953680607,3.7900919999995555,2.500000000000341,-0.5968759209279415,0.17146552016449387,0.22894010600238904,0.1530488139153064,-0.19829825360179001,-0.02597715364284872,0.13537881306280075
24.25,0.9675845844173772,7.40562074830401,7.69843277546282,-0.01442315591252261,-0.02080635328046237,-0.05250833054355783,0.6808720781716913,0.34051556196901,0.03340702342195431,,,,,,,52.339571701727444,4.9518484520812445,4.983795825198741,3.7723938184816053,233.69305747697632,3.7900919999980216,2.4999999999994875,-0.5965153430539774,0.17406425287037883,0.21891463216271795,0.13882492574436675,-0.1808671304893128,-0.04229846403731883,0.1290660897344806
24.5,0.887444035518856,7.172864255084465,8.064605501606849,-0.018605832009168797,-0.01632204163006762,-0.054591652501045154,0.6436924242688252,0.3155491508585846,-0.058572809187166085,,,,,,,52.339567357324356,4.951839679905539,4.978934710010059,3.768405603267567,233.31214178537238,3.7900920000035785,2.500000000000377,-0.5966425506886393,0.17651564502598246,0.21413219552980658,0.1327868469228556,-0.17019909460682298,-0.05096641675325296,0.1290034641198866
24.75,0.7567503164068744,6.832646084761243,8.64173077600366,-0.023847333873426555,-0.01215473246741052,-0.07223112918575732,0.5885188704709636,0.30652935432981765,-0.2156180445525025,,,,,,,52.3395632027494,4.951831417453241,4.9727767552750315,3.7629438983265833,232.96417884760464,3.790091999996421,2.49999999999996,-0.596479897834176,0.17736644301908705,0.2129966244835098,0.13694298604425534,-0.154787105644758,-0.07163232173615595,0.1266037746907226
25.0,0.6418470854672599,6.5576413979624695,8.996267108691532,-0.02803309594328907,-0.003761584947087123,-0.06745535233167903,0.5322386348797972,0.2697819401810786,-0.3047433354279773,1.0,0.0,0.0,0.0,0.0,0.0,52.33955900173118,4.95182301867853,4.968377423679115,3.7613102380783836,232.59959453552617,3.7900920000021103,2.4999999999996936,-0.596469457139842,0.18070420511922866,0.20375915326788538,0.12157792684495995,-0.14252276629318836,-0.0776806061207942,0.12423314154113557
25.25,0.5691334204125291,6.73242615761906,8.485917497229575,-0.025070995634937743,0.001404164978574502,-0.026391972110890397,0.5423452338245905,0.20778560726425724,-0.17447959417390993,,,,,,,52.33955378398124,4.951812775676316,4.9760382302006825,3.7689562385801856,232.170155204638,3.790092000000052,2.5000000000005542,-0.5972067743499003,0.18667822741890464,0.19213131502063086,0.08454218394447732,-0.14587833695186622,-0.04592770149340144,0.10906911930700519
25.5,0.4736070679895308,6.972405932749871,7.793199445465031,-0.020493014277172383,0.00945317798162091,0.026279939912385912,0.5423773306332017,0.13690524774622692,-0.004158984475099766,,,,,,,52.33954840051652,4.951802366258043,4.987586118221941,3.7803204728629587,231.76184489757964,3.7900919999981175,2.499999999999317,-0.5980047985849027,0.1933359350140102,0.17680366240388143,0.03644768581956101,-0.15271902475973165,-0.006890432690584291,0.08846746824409486
25.75,0.44728317508594,7.120251379051301,7.224199229923342,-0.017814674901937597,0.01569459513384137,0.08026862757972027,0.5635113823739508,0.04873724026424771,0.16010058682237166,,,,,,,52.33954342184627,4.951792513053703,4.991934784777707,3.790628476382946,231.30561244358887,3.7900920000026654,2.5000000000007665,-0.5987525911245043,0.20163618849798834,0.1597220042204562,-0.0108393648442305,-0.1535132184315561,0.03512926860234734,0.0804823739036485
26.0,0.27356290216911816,7.392185123489515,6.5848908898999,-0.013010668589038758,0.024651486000580206,0.12105358549355079,0.5410941874026979,0.006248434312670269,0.2912645423896932,1.0,0.0,0.0,0.0,0.0,0.0,52.33953777564231,4.951781637582768,5.00795506154939,3.798495148736689,230.9253560209859,3.790091999997806,2.499999999999192,-0.5995177711942675,0.2057461668982156,0.1490289787712127,-0.05121490100624121,-0.1642188278480201,0.06224270142226483,0.04868108773822709
26.25,-0.3937677309688606,7.803564135977312,6.0267264328519605,-0.005955144686828471,0.054942851272576296,0.13603644286805944,0.2806954381980415,0.0837302660858097,0.23306624933911682,,,,,,,52.339530904850385,4.951769060934901,5.050201310412986,3.798740620227016,230.8722796313858,3.790092000000887,2.500000000000733,-0.5999801303113729,0.1975523061939281,0.14249300541564056,-0.09298176020488473,-0.2044463131096185,0.03029187780815096,-0.05254294031011066
26.5,-1.3980348539886946,8.38690821395283,5.3775026651634015,0.003645584946906453,0.09489837512644952,0.13115978910546255,-0.07736632078058259,0.24024143650216778,0.09097899948742101,,,,,,,52.3395231217203,4.951754980919444,5.110734321910621,3.7910743588396345,230.9252573385758,3.7900920000004987,2.4999999999995723,-0.6002802852506481,0.18196039233070832,0.14439595286879528,-0.12912018736918437,-0.2623640580573275,-0.03227602137282238,-0.20361207725301889
26.75,-2.0105143519190376,8.793660361009255,4.895164597369782,0.010489897952197456,0.12215562063495479,0.1408068512709891,-0.329040805693731,0.32016985720598806,0.030697584304067046,1.0,0.0,0.0,0.0,0.0,0.0,52.339516161885854,4.951742266083206,5.1532416153544265,3.7921516164934275,230.8819128518913,3.7900919999987854,2.4999999999999156,-0.6008580463236105,0.17367668651538118,0.1397347080050368,-0.16469754300616085,-0.30123639543926245,-0.06474727957585676,-0.29739896625800644
27.0,-1.7132430777448242,8.671672757325261,5.154072376444833,0.006848437405090646,0.1301325656085696,0.19569842056575565,-0.5154087676586021,0.23362586481130293,0.0389175285237851,,,,,,,52.33951148226536,4.951733413036152,5.145894664882492,3.8180628671639782,230.8473435010411,3.790092000000996,2.500000000000648,-0.6022299379614326,0.1788279799952146,0.10459156091546913,-0.2182263856907644,-0.30853385638527897,-0.0562913164911952,-0.256726837533325
27.25,-1.0870111197828987,8.413487317506554,5.679141488469871,0.00029119264706214845,0.12759430121972395,0.2565906041827263,-0.6517056128622708,0.09965615673933685,0.0824951766228647,,,,,,,52.33950730547958,4.9517253642303665,5.12576417096354,3.8517784300701288,230.7850674451711,3.7900919999998797,2.4999999999989795,-0.6039987452818109,0.18831201225749536,0.06442045974652624,-0.26796140198102386,-0.30371312502142084,-0.032611182149446874,-0.16851469844351333
27.5,-0.6873714145782692,8.252452109065011,5.995695167862439,-0.003490920392586164,0.13012917922214326,0.3057556633581525,-0.7786920155659977,-0.0009229062159801585,0.11788605726919872,,,,,,,52.33950266463943,4.951716580647211,5.117219514831993,3.878275104903291,230.70298364663944,3.7900919999992917,2.5000000000010854,-0.6054088457261224,0.19542507520158064,0.032444432793448594,-0.3124877699509056,-0.30291299524653265,-0.014806430239288747,-0.11192620978865017
27.75,-0.17560970417269828,8.036774569891163,6.382221387055967,-0.009798306478005617,0.13430805452191993,0.38076349349208727,-0.9814129726662884,-0.12731519792335613,0.14127401925871041,,,,,,,52.33949859541233,4.951708733737829,5.095317409900237,3.9116953967841797,230.68637497183718,3.7900920000008473,2.4999999999991003,-0.6070849046253564,0.20323213968179918,-0.01365784191993823,-0.3777533933022858,-0.30785693630601146,0.0012887507651325536,-0.042439738281322956
28.0,0.32024381242642747,7.837186423042611,6.880995939530498,-0.013846248470082404,0.1307557653050527,0.41076634293816217,-1.0480783612126237,-0.22901584152961546,0.18782385433091225,1.0,0.0,0.0,0.0,0.0,0.0,52.33949374323665,4.951699543449573,5.091322954267515,3.938458672739237,230.56870650235757,3.790091999999924,2.5000000000006914,-0.6086051758616101,0.21151576972061262,-0.0384305652580057,-0.40430088568279793,-0.2973575711684391,0.024057539973414886,0.031190463773339793
28.25,0.4845707257572301,7.666673671284071,7.546367147979305,-0.009754847449180797,0.11668799943565339,0.293040737847549,-0.7105053016898184,-0.23789722831880172,0.2601160455317669,,,,,,,52.33948662161305,4.951686529777734,5.146309036645861,3.9378168443884736,230.19734385103635,3.790091999998803,2.4999999999993827,-0.6088541087635425,0.21907574187558154,0.0052796595429683325,-0.31576237848969957,-0.240955610219445,0.05827314782785241,0.08321138795710152
28.5,0.7058738465075626,7.4628681533593255,8.597500731242594,-0.003687094613325161,0.09038543391562268,0.10151281880981614,-0.17646795933880444,-0.21928408644731848,0.35948684884971666,,,,,,,52.339478393527884,4.9516714819298,5.229052385239263,3.9328044105401094,229.70875185930484,3.7900920000022507,2.500000000000668,-0.6090610221889173,0.2280756694361798,0.07944003968835861,-0.1665351247397222,-0.1568539171179876,0.10295810171928808,0.1563094414437088
28.75,0.8846290080722752,7.302864291427263,9.243339883248163,0.00045894464751588117,0.07428415430879731,-0.017331850949153325,0.17170571871938012,-0.2249644307236967,0.4333349626392729,1.0,0.0,0.0,0.0,0.0,0.0,52.33947121838113,4.951658427597415,5.283200288685758,3.929820294677088,229.31476269439355,3.7900919999975726,2.4999999999993263,-0.6093251989557696,0.23555134949700554,0.12480328090086533,-0.07487104116728457,-0.10067679402649646,0.1369914912235671,0.209037163705061
29.0,0.694000437541406,7.235874570100716,8.71002451715064,0.0033006378793701257,0.0849927993145709,-0.034131330074849184,0.29417402466692383,-0.25841541611365615,0.43896372475522816,,,,,,,52.33946624810148,4.951649696572426,5.283773851538461,3.91275607191396,229.03556920123472,3.790092000001581,2.5000000000005422,-0.6085075244500853,0.2383720498588786,0.13481384142040126,-0.07021361334630331,-0.09041202690188428,0.1506809239404618,0.1869016489440774
29.25,0.4860406257413327,7.211099904289195,7.886240714008783,0.004839531798098626,0.09997262414313678,-0.013654818966214122,0.3275752835257412,-0.3024035317584701,0.4270361825402408,,,,,,,52.3394619080572,4.951642206317478,5.265337193611142,3.8929948390788045,228.77751168950448,3.7900919999999236,2.49999999999968,-0.6077017629127082,0.2399306793733358,0.13131728597479625,-0.09360993665728796,-0.09685537641397224,0.15721530503211215,0.1521203363509435
29.5,0.32194092429637,7.154687236517899,7.318617481804551,0.006829516280083154,0.11075963236129259,-0.005464053257588792,0.3770639706945952,-0.33900421364991834,0.42395136578736736,,,,,,,52.33945709050207,4.9516338188812625,5.258319304059669,3.876848368073777,228.52289761559905,3.790091999998636,2.500000000000172,-0.6070620052195852,0.24235929348136315,0.1314083436292194,-0.10632105384972663,-0.09545428818370083,0.16616782924104237,0.12861660591381882
29.75,0.058907454155311054,7.116688566386155,6.464565401332989,0.009592790236727893,0.12893782535678508,-0.007115442620385472,0.4869202284428219,-0.38602890574676685,0.4238725942662723,,,,,,,52.33945275498377,4.95162623382798,5.246717583446009,3.8576380510183483,228.26405158411183,3.7900920000021037,2.4999999999997984,-0.605964182394484,0.24445414052540748,0.13647553556843894,-0.11639769711218215,-0.09346568242676413,0.17924952647082845,0.09200074911793771
30.0,-0.03936037131476122,7.0684217682996,5.986520102715419,0.010191211759843397,0.1340354909541954,0.01672834840314802,0.4675028327774352,-0.41448867086184266,0.40805732754265783,1.0,0.0,0.0,0.0,0.0,0.0,52.33944777999851,4.951617670299289,5.234847161393651,3.839747561340247,227.98383963066257,3.790091999998169,2.5000000000004023,-0.605655037131258,0.24636502196615126,0.13060603256454242,-0.13676413502290666,-0.09815880372675835,0.1811954393144452,0.0724136237938813
30.25,0.17708800944574354,6.862890260501933,6.807232528812107,0.005108045936825276,0.09533977425418556,0.09866715729665605,0.08561990430579929,-0.3733336209160047,0.33604562701456403,,,,,,,52.339440603201375,4.9516057465800385,5.229515105948425,3.8207477868912125,227.62874607566744,3.7900920000007345,2.499999999999403,-0.6068782723377291,0.2484381873044064,0.09967520493590833,-0.1761391459435091,-0.10441697262664187,0.1519918010601623,0.08914189854780816
30.5,0.6235501373283864,6.61235868092425,8.187411036528932,-0.003996376998055756,0.034142523370541335,0.21795171281375714,-0.5026346467027083,-0.29977044901467226,0.2325197374208407,,,,,,,52.33943238845995,4.951592227826939,5.220348045772633,3.7990743513770053,227.1635946905954,3.790092000000666,2.5000000000005973,-0.6091981187282955,0.25025970096919825,0.05319276091861071,-0.2300279376067097,-0.11907527064308025,0.10390904081753753,0.12815228983211477
30.75,0.8671821094249281,6.450708226542102,9.012218423147601,-0.00924948001608038,-0.005863957167223483,0.2997074287727642,-0.8872289289014442,-0.2559179126462442,0.16001262750922268,1.0,0.0,0.0,0.0,0.0,0.0,52.33942524074802,4.951580394960132,5.214681253207635,3.7807060129553762,226.83537230377874,3.79009199999832,2.4999999999997,-0.6105781226158246,0.25170154584620497,0.022590011341752106,-0.2679241385187165,-0.1282868003038452,0.07311747006550137,0.14638221538942287
31.0,0.557872657519187,6.406619314836183,9.043327388602108,-0.008854733208513037,-0.029407117279646084,0.30072789335762895,-0.9193283575841572,-0.24682072829369436,0.13585615158986145,,,,,,,52.33942022293309,4.9515722910619555,5.208291287046047,3.7618512519622964,226.81473416264154,3.7900920000018408,2.499999999999802,-0.6093462218793992,0.25134469374042884,0.029012448648157267,-0.2627312930888586,-0.10801356817726208,0.07309772896740223,0.10258378305334755
31.25,0.14434125750872517,6.49424616228653,8.770895499331898,-0.007056559814278801,-0.04848452286759943,0.27114965629461796,-0.8285216242871422,-0.24638808323490075,0.12991394501922884,,,,,,,52.33941591956807,4.951565430171417,5.201000647431966,3.7434223222973806,226.88949292968093,3.7900919999989258,2.50000000000069,-0.607683943860185,0.24938736480448045,0.04944863756844727,-0.23882267605105578,-0.0849102742082586,0.08084160757527586,0.04411135425734926
31.5,-0.17009699813161155,6.513843081637864,8.629582422749412,-0.005226191508677058,-0.06156563633960665,0.2618331140361897,-0.798229141419082,-0.2445322508424146,0.11319949105590393,,,,,,,52.339411104050875,4.9515575982600675,5.1991827564335305,3.727265303951113,226.92620737323074,3.790091999999781,2.4999999999990754,-0.6064861086536402,0.24860128847722301,0.05956398506742457,-0.22950521309205751,-0.06911269713686345,0.08397386407301667,0.0007906095520467116
31.75,-0.6375860639665896,6.457891283925213,8.49253784863339,-0.004304359814137994,-0.08790018763911558,0.24927670628645524,-0.7699883513548691,-0.246026096476013,0.10153757238637963,,,,,,,52.33940671470212,4.9515506363905875,5.186028424649988,3.7062543405754305,226.9437993651486,3.790092000001419,2.5000000000007785,-0.6044139497643269,0.24819673612702492,0.07348078554368928,-0.21670910141754954,-0.037125792546152156,0.09218088362952362,-0.06253078087591485
32.0,-0.8482930584328585,6.682801379270217,8.28387168798316,-0.0024331371060314286,-0.09901957194152398,0.21774363784734013,-0.6880709489041611,-0.23266655865402797,0.08829413927992244,1.0,0.0,0.0,0.0,0.0,0.0,52.33940183877712,4.951542690141569,5.190215635430753,3.691947177113398,227.01745242193817,3.790091999998101,2.499999999999726,-0.603954811540284,0.24493816544297253,0.0923968772467059,-0.190170615921891,-0.0327960153195269,0.09123200919777896,-0.09774068741444539
32.25,-0.2851173623080111,7.634752003159431,8.099725196938442,0.0019414168195231363,-0.06001233943259362,0.14298218843960855,-0.5096634508289895,-0.1622448171203665,0.05115643147167883,,,,,,,52.33939487279805,4.9515307078139275,5.2539043914232275,3.6980922712219644,227.25594010396864,3.7900920000014002,2.4999999999996048,-0.6084345185458347,0.23400624544616705,0.11822776034087537,-0.1336668549279887,-0.11215772232999556,0.05656694778281189,-0.042381183852490636
32.5,0.7333448942255334,9.244776368902706,7.885592642220654,0.005736627429044531,-0.013836201917443612,0.011746084145297644,-0.2385491930533384,-0.04762119984190265,0.013248012500193303,,,,,,,52.33938711245301,4.951517281715705,5.341115099509274,3.7117376175966292,227.53339577160307,3.790091999999865,2.500000000001002,-0.6160306661934728,0.21552977783445415,0.1642544987666022,-0.03158931125902382,-0.23724678479447645,0.001806099917965996,0.05409991075472793
32.75,1.2915646813308124,10.152420775238824,7.657390175562012,0.010514962324799156,0.028680357144623095,-0.061487317151155595,-0.0437076369124771,0.020665241005134456,-0.021626424234056696,1.0,0.0,0.0,0.0,0.0,0.0,52.33938019221487,4.951505322010951,5.406503617797132,3.718448683887777,227.809237833298,3.790091999998758,2.499999999998673,-0.6203332972259125,0.20501523604562977,0.18946714413648358,0.02357936076531001,-0.31559060871620004,-0.03139070964627144,0.11088209712774255
33.0,1.0269743169059415,9.5936721186489,7.460433163765373,0.016222132054019126,0.07575372891439294,-0.03145245095784606,0.046484890673631166,0.02510156979214051,-0.05236846306045762,,,,,,,52.339374371814586,4.951495048171592,5.445184387114676,3.713902775822017,228.23702681021683,3.7900920000021,2.500000000001285,-0.618262555888261,0.20951043269935096,0.17571558810024798,-0.005385314237487018,-0.3059067372741657,-0.02880249662039529,0.10668643700935797
33.25,0.5384874750203492,8.645710146774066,7.251050783825161,0.020891010021582498,0.11263938398590025,0.016196986274895714,0.13159342898384185,0.01860612483559585,-0.07248345716339907,,,,,,,52.33936905327229,4.951485567126374,5.471813080670454,3.7037409037836446,228.70981212548915,3.790091999997863,2.4999999999990843,-0.6142432957472385,0.2174193093197798,0.15784666088453733,-0.0451360716219291,-0.26579474840705664,-0.01540558232185691,0.0824508526155154
33.5,0.10108177706208829,7.817327063781326,7.011766214257862,0.028530532402857696,0.1676144093156769,0.07488491780672096,0.19222439522449863,-0.002985147012261652,-0.10593677532246269,,,,,,,52.33936350412609,4.951475784179731,5.5057266787525085,3.698528053854171,229.14854874423912,3.790092000001556,2.500000000000401,-0.6110116076159593,0.22553848103912336,0.13233302959787102,-0.09968030443569312,-0.24289905611216922,-0.0035972064133802,0.0659792241783034
33.75,-0.24589592807592073,7.11004946399907,6.8437173749227345,0.03166607857783712,0.19842123514371535,0.10225680066839515,0.28779701477504827,0.008850329775320145,-0.12619636762908326,1.0,0.0,0.0,0.0,0.0,0.0,52.33935797493407,4.951465928764452,5.5353617833895346,3.689374901237315,229.5916338911266,3.790091999999242,2.5000000000000875,-0.6080515658684637,0.23048729422954214,0.12254817299424406,-0.12154550656382031,-0.21543817541477392,0.0018587513181264562,0.05104994310144256
34.0,-0.15660323554088507,7.06284213324868,6.8642665955114435,0.021504867306079496,0.1436311805843642,0.03853485331924381,0.4494647732758328,0.10983854870666095,-0.11016528392443625,,,,,,,52.3393527577689,4.9514562924640515,5.545940514800123,3.6700415746746553,229.91581268416493,3.7900920000001097,2.4999999999995786,-0.6071328391165344,0.2241208445301556,0.1610184031142279,-0.04124181788699413,-0.18950563068849263,-0.015015690969717353,0.047046533953010373
34.25,0.09807159815843702,7.3001774323476525,6.959571980895213,0.007669716819464734,0.07046825425032117,-0.047683040656160455,0.6036670746704508,0.2330547011822652,-0.08995476028831415,,,,,,,52.339347533393486,4.951446527063449,5.5534443543184135,3.650626863745896,230.18158622214554,3.790092000000306,2.5000000000005693,-0.6073718970111714,0.2139914257088344,0.20982933053098382,0.06222473930196692,-0.1741026671951175,-0.041430188001323524,0.04979945519710662
34.5,0.24135239846055784,7.337523142815505,7.019577893843765,-0.004868778036109548,0.003925661074135566,-0.13504680942238773,0.801136046905828,0.35971750142350273,-0.06924078895226703,,,,,,,52.33934217385546,4.951436649879029,5.56400426779353,3.6287889298176763,230.51597122126253,3.7900919999994787,2.4999999999994804,-0.6066686229936566,0.2053389793873011,0.259568201215001,0.16541630242158145,-0.14700811641795236,-0.06347684824047663,0.04754102171142549
34.75,0.4201283723669623,7.4407945038750745,7.068833666262306,-0.01600756650487771,-0.055836873853040106,-0.1977335918987626,0.9278870768323597,0.4557068692227287,-0.04995433401609043,1.0,0.0,0.0,0.0,0.0,0.0,52.33933710106042,4.951427145404261,5.572195575678596,3.611543719725802,230.7898364993334,3.790092000000626,2.5000000000003206,-0.6064679735534828,0.19806254219974187,0.2968984746768811,0.24515111960235678,-0.12947852626502654,-0.08264424399043545,0.048196094676811206
35.0,0.4217236781104344,7.44761434268752,7.0335280074455735,-0.01947234146394958,-0.04760816835877617,-0.1609866462046132,0.8101434488462378,0.4177049806418519,-0.024298066332050134,,,,,,,52.33933290038462,4.9514188496109295,5.5809629658193876,3.6144619914741023,230.9637412301499,3.790091999999332,2.499999999999951,-0.6067555457181506,0.20017843300446833,0.2756368509799575,0.20556096705599858,-0.13633122424464275,-0.07941757847789861,0.046620057483387774
35.25,0.3417260460310515,7.335496577192918,6.944171008216748,-0.019186219263002076,-0.01611392074034869,-0.0876285742893054,0.6233300333970604,0.32725483230034297,0.010677898125448082,,,,,,,52.339329076346644,4.951411123951184,5.590050401518624,3.623226322503144,231.12071097923382,3.7900920000007137,2.4999999999998237,-0.6068072917695965,0.20678119349835047,0.2338772419645945,0.12389456113511045,-0.14501930088907358,-0.06359857750436729,0.04478289414258898
35.5,0.3698519199804938,7.338127904062795,6.896701631216558,-0.021379982047330718,-0.007676661631047065,-0.03737670975346691,0.4820978201812617,0.27754254967295333,0.030862262841119023,,,,,,,52.33932495486006,4.951402910769708,5.598273350767411,3.627261311262821,231.27847434211714,3.79009199999927,2.5000000000002935,-0.6071799935092713,0.20964911296832092,0.20772928784983444,0.07596866589716908,-0.15431896666104583,-0.05920414367333611,0.04572130649111135
35.75,0.2800067038776692,7.278125873177879,6.83060518679506,-0.0234611248666962,0.019238343183277495,0.01859639191743263,0.31971956379008043,0.20779945939842087,0.06569898894817239,,,,,,,52.33932102221745,4.9513950714764885,5.606685825872793,3.634235222425475,231.43847379765253,3.7900920000006777,2.4999999999997393,-0.6073185087145487,0.2143898973783997,0.1734674532093105,0.008163480808091464,-0.16275988694962892,-0.04840972186330066,0.040186603940375334
36.0,0.301052738981885,7.216589550350628,6.762372535941925,-0.02325335392068424,0.03442423955766334,0.08097005898540427,0.16306511101523471,0.13751909507911136,0.09285744571022571,1.0,0.0,0.0,0.0,0.0,0.0,52.3393169807123,4.95138691313236,5.61648903004953,3.6401685701281035,231.6074597235368,3.7900919999994627,2.5000000000000786,-0.6075151133905565,0.21931071571878832,0.14087547014943447,-0.05237620480022802,-0.1703004189454539,-0.037281814276226455,0.044625320507641994
36.25,0.5575994212172619,7.239436635336306,6.7368048659392015,-0.01847588219632403,0.01852773702991799,0.14355219707744232,0.01926819462897756,0.0966930067043538,0.07267571239351843,,,,,,,52.339312039510375,4.951376636635711,5.630975977923783,3.6445560774509667,231.8606420907884,3.790092000000473,2.5000000000002256,-0.6080369166257347,0.22119131917330204,0.11920043224371274,-0.08205759974674111,-0.18120909149024494,-0.037228734285972315,0.06516600350799721
36.5,0.8208735898215587,7.208447506143335,6.703753182625024,-0.010425576465483187,0.004979357169310495,0.20602345033888517,-0.12011911259275575,0.043615897328014866,0.06172641042941723,,,,,,,52.339306922788396,4.951365792235614,5.648662592514118,3.6506403273969235,232.1701836142836,3.790091999999368,2.4999999999994746,-0.6082838848443831,0.22449400851667367,0.09660523824636569,-0.1133163473767029,-0.1869640310643266,-0.030032218213087603,0.09071432950052868
36.75,1.1908326496520212,7.209452398792289,6.667309116194974,-0.0036438212202122375,-0.017612366207980013,0.2800198254980101,-0.2613014222122875,-0.008740772675825594,0.045631488288162804,,,,,,,52.339302120693546,4.951355778757937,5.664857454319974,3.654162155957438,232.40167194092953,3.7900920000010307,2.5000000000007163,-0.6089045228148393,0.2277751718483666,0.07299491482780122,-0.14317785189573554,-0.197110187280477,-0.026097615156410132,0.12387974377362798
37.0,1.311997358250128,7.2120732073754334,6.644154180591148,0.0015227205030595768,-0.024590282531379168,0.33535073502723506,-0.4177506899083842,-0.04539166629239491,0.01786077293464319,1.0,0.0,0.0,0.0,0.0,0.0,52.33929684338978,4.951344672430197,5.678900788059098,3.661090972367894,232.7232164894836,3.790091999998588,2.4999999999992464,-0.6090886368987312,0.22891460115090997,0.05121072033751671,-0.17676196613739173,-0.20643046813445262,-0.026972264081156872,0.1314209757901026
37.25,0.5737340523878017,7.150344509674235,6.630684469619429,0.0011009976893337733,0.02732711752047125,0.32502451379803593,-0.6022551409515527,-0.05087390097868175,-0.009937358263336561,,,,,,,52.33929050764237,4.951331005453369,5.685056274298201,3.6786054865922186,233.31286679542458,3.790092000001472,2.500000000000694,-0.6075242754558786,0.22558209581068736,0.03365085529417996,-0.22903713196415518,-0.2048101593824672,-0.031838186238022634,0.056239278103089756
37.5,-0.647228149981264,7.119095726550857,6.629990208239394,-0.00483642838193737,0.10481091217072626,0.307506618638075,-0.8775735244806978,-0.024993489726082927,-0.09291500832482308,,,,,,,52.33928349775397,4.951316025301324,5.680295893338928,3.7016851328164027,233.98325916081018,3.7900919999989604,2.4999999999993854,-0.6054383217235909,0.2172099058946635,0.011302405971498926,-0.30311722954382053,-0.21168321631847983,-0.05606823672017971,-0.07632248115865196
37.75,-1.3664811015326008,7.074874560194775,6.623570797536652,-0.005826723619548029,0.15580926682249627,0.2852091462705618,-1.0265239371871375,-0.020053891117378455,-0.1182183955117359,1.0,0.0,0.0,0.0,0.0,0.0,52.33927714243948,4.951302242677154,5.6886859700051,3.718128309670698,234.5866241883139,3.790092000000303,2.500000000000612,-0.6039090897655479,0.21320265251485584,-0.0009742721821635394,-0.34496404693336363,-0.2094202392823108,-0.06219380026816906,-0.1488896774943087
38.0,-1.2063314015964384,7.046490536253355,6.607106932378029,-0.0023783612373346774,0.1629257483800772,0.20397512088268627,-0.7836877420510043,-0.0026453144083458616,-0.03735135087970298,,,,,,,52.33927214723488,4.951290590996864,5.728563870204583,3.7168750806908863,235.11217687857115,3.7900920000003833,2.4999999999993063,-0.6033100492921836,0.21378520439157023,0.026570082287956938,-0.2889355814840633,-0.188697164773678,-0.04424078089329495,-0.11310076432700639
38.25,-0.7449860024564736,7.061329752277735,6.590766460772712,0.0009570033162679811,0.15189118197345336,0.11289178977364353,-0.418740546611216,0.037070587095277746,0.04260916200102545,,,,,,,52.33926756077606,4.951279576855301,5.778139577265703,3.708341037201494,235.58667484356536,3.7900919999993232,2.5000000000008074,-0.603271548464554,0.21386693843181678,0.06717201464150054,-0.19896091381653744,-0.17056474933449134,-0.0303010222969118,-0.04571021601928667
38.5,-0.42352614307766967,7.019561422107369,6.577067556618106,0.006757984232822395,0.15237658849512176,0.02135189404310953,-0.1291692761751167,0.03928995578435749,0.16353949124387948,,,,,,,52.339262723392174,4.951268236490907,5.822715150823246,3.7062420771404234,236.11629137955123,3.7900920000005147,2.499999999999165,-0.6027480799349385,0.2167278610586017,0.09897858669828927,-0.1315002849880729,-0.14215695107225362,-5.971336198020913e-05,0.012344989441400998
38.75,-0.10577326376785863,7.02927089408395,6.558857101068611,0.009255388260761178,0.14676606786510482,-0.05682719954861412,0.17288136920368044,0.0789082318529785,0.220786064167329,1.0,0.0,0.0,0.0,0.0,0.0,52.339258006265815,4.951256978725567,5.867102895844011,3.6993073392015825,236.58004256884456,3.790091999999999,2.500000000000719,-0.6025576037261035,0.21601161922180914,0.13305563549811164,-0.05737733816536561,-0.1275451923046423,0.008636684611238232,0.06104441346031092
39.0,0.10435256125324421,7.147128710225684,6.544362346200892,0.00654675216632273,0.11932450400953715,-0.06145522419048466,0.34457696904365914,0.17291773204561245,0.11251380170018413,,,,,,,52.33925350010121,4.951245777392388,5.899976178658506,3.68261019535001,236.7734228936937,3.790091999999371,2.4999999999995204,-0.603036938446708,0.2087164697579376,0.1557718955664147,-0.0016054968903934947,-0.14528920306167104,-0.030041462714893562,0.06995234067345604
39.25,0.1885758757289073,7.266799151195555,6.539497101516026,0.003810509704287997,0.08800477697994707,-0.04569150241970908,0.4293324503721415,0.2573614704716187,-0.014837679360133476,,,,,,,52.339249002435174,4.951234486870066,5.9244161379174605,3.665400346135789,236.87379306573916,3.790092000001157,2.5000000000002665,-0.6033693425393531,0.20151044066508794,0.17090879998546735,0.036551164629161456,-0.16326074364847143,-0.0707948818108248,0.059320859264549636
39.5,0.37780064454037016,7.410978952169086,6.50985773880725,-0.001338706724233332,0.06281736455523589,-0.039671503225610305,0.60902204878024,0.3820775804042125,-0.17346856394276422,,,,,,,52.33924449368665,4.951223241159046,5.959774696149917,3.6467426871654016,237.07828711671175,3.790091999998642,2.4999999999997815,-0.6040713791700891,0.19127586735250898,0.19358067867445927,0.09372621322218007,-0.19400851010199188,-0.12712373333082824,0.0610063126793226
39.75,0.5079434630622899,7.514710178062866,6.518751666953484,-0.002718994248899945,0.02947191798389244,-0.039067267710737784,0.7166442410890193,0.4471164020913476,-0.26110771088228896,1.0,0.0,0.0,0.0,0.0,0.0,52.3392400051046,4.951212026480473,5.982654320672206,3.630928051102011,237.17047667884063,3.7900920000011564,2.5000000000003912,-0.6042914028045531,0.18603473568159565,0.21189608231357515,0.13759479246004705,-0.20178965888303818,-0.15480233497913998,0.06001648378594625
40.0,0.4890773804133031,7.481064220800031,6.656760051140562,0.004755041584722563,-0.021158925671649616,-0.09704756753815143,0.7288885448144379,0.3385437082636787,-0.11225227688969477,,,,,,,52.33923550360642,4.95120096758082,5.964358266335946,3.626557851644629,236.92916839793148,3.790091999999407,2.4999999999993525,-0.6030275416929751,0.19531423995952044,0.23044052742970217,0.16626568495439015,-0.13313628803656505,-0.09153231782427702,0.06190981536769195
40.25,0.47880931967507173,7.414117169664339,6.832950691785587,0.013393877196404294,-0.07606331590353078,-0.17734997474587993,0.7568170119009394,0.19223112362222367,0.08775709126887893,,,,,,,52.339230982636415,4.951190025600302,5.933287327471364,3.625882977995452,236.57416203657115,3.7900919999998726,2.5000000000007767,-0.601542625541233,0.20758124016355103,0.2528814111126581,0.19996243701743865,-0.04659965005730195,-0.007990440751689452,0.07037601147632672
40.5,0.45993277330952065,7.365478219663171,6.988895286516399,0.023709596563651267,-0.13351841326894548,-0.2409585887285735,0.7392952283389644,0.04918140952856516,0.29057583978787377,,,,,,,52.33922653032029,4.951178989754388,5.913073881178062,3.6216451226872235,236.3180186768127,3.790092000000738,2.4999999999994063,-0.5999706597166913,0.22014818692993315,0.27025968913625686,0.22428560190345426,0.03696046192399975,0.07438722094370208,0.07509025243576668
40.75,0.4337838040805665,7.31227721333012,7.139890277673213,0.03015026384339455,-0.17995600298111183,-0.3083838069233798,0.7703204700504512,-0.06280469458841008,0.43565270972426406,1.0,0.0,0.0,0.0,0.0,0.0,52.33922196374355,4.951167992990904,5.885682249269292,3.62093507721981,235.99487590094773,3.790091999999128,2.500000000000118,-0.5987858626197665,0.22925312997770061,0.29067300046149264,0.25586675003000126,0.10661596489941129,0.13819829232117284,0.07849635342601596
41.0,0.39526349227918,7.274754712751711,7.201091890737715,0.02415285121828783,-0.17401225757608219,-0.34019384658552937,0.8779347693384594,-0.021525027926920057,0.318307949615363,,,,,,,52.339217031643784,4.9511570203453985,5.853055440952981,3.631369846294582,235.61332876958772,3.7900920000003024,2.5000000000004525,-0.5994366615269224,0.22320725653046514,0.30642921181789906,0.2872266529654723,0.09669499183743384,0.11116028650132626,0.07277457231500252
41.25,0.3231460441314606,7.243005749104116,7.212315408411821,0.01519333900247069,-0.14462868004274038,-0.34940564792293083,0.9676454956199319,0.07145027171621644,0.12108470540374422,,,,,,,52.339211982682436,4.951145973019361,5.823974639046739,3.646359005322831,235.27926191860539,3.790092000000872,2.499999999999176,-0.6006788541354089,0.21242116852908477,0.31475952282701525,0.30630515752596993,0.05639175345513932,0.05389702524221102,0.06120010840385736
41.5,0.2768744985230257,7.2053071920010865,7.2825001617001455,0.006571976590492549,-0.13852646046880981,-0.3867794562627976,1.1177744714815876,0.13339943410382515,-0.039706637972153534,,,,,,,52.339206998064945,4.95113502763262,5.78674409448409,3.6560249041689215,234.8315600193435,3.790091999997966,2.5000000000008344,-0.6014763404288599,0.20406392848683222,0.33562980884390925,0.34857577365774284,0.04107649524908384,0.014684004890134158,0.05243096811081129
41.75,0.2263276103135788,7.176352678350315,7.296212639300009,0.0001492321366657177,-0.11455817388325609,-0.39634561639651067,1.1815224800347803,0.193999363307022,-0.17761518232771703,1.0,0.0,0.0,0.0,0.0,0.0,52.339202019545844,4.951123974672408,5.759983608919648,3.671323587294934,234.55041844331384,3.7900920000024674,2.49999999999949,-0.6024759213528041,0.19643775719583315,0.34112252737684123,0.3610131914775035,0.012544565090303883,-0.0242970702439477,0.04580808785730053
42.0,0.20216261906716174,7.193780849064151,7.1768361209206795,0.0035799755980065284,-0.06335340324340936,-0.33660220381931405,0.9852720586069391,0.1580287938737052,-0.0990412756259372,,,,,,,52.33919722001876,4.951112523327451,5.762741820016541,3.7016875438719943,234.85164284327715,3.7900919999981477,2.5000000000000515,-0.6032683578531631,0.19887324905988207,0.3012393949196991,0.28238469654170945,-0.015723570880312156,-0.013448421378805295,0.05390817491724283
42.25,0.2203197390316696,7.237266571082391,7.031647022947543,0.009848657953953316,-0.015370076388228203,-0.2592748753218144,0.7290190695558723,0.07067290521344727,0.07183818202284149,,,,,,,52.33919253090634,4.951100976759658,5.772776781984882,3.7349688826716205,235.338148547767,3.7900920000005933,2.5000000000003455,-0.6038282240918077,0.20592489887562027,0.24976399790991025,0.18089322887598866,-0.03371491050893989,0.022634418675824716,0.06948029858866255
42.5,0.1930045854192181,7.2494123041613046,6.891454658315103,0.015287890946943739,0.046169149625555544,-0.19282740704186901,0.49303361639569093,0.034455565529232846,0.16680327530149264,,,,,,,52.33918772618822,4.951089524219159,5.779019361068901,3.768543585671264,235.6769897165316,3.7900920000005303,2.4999999999994835,-0.6047197896023603,0.20898943750075522,0.20405839739694118,0.09010499885697988,-0.06670641511397829,0.035691074810511716,0.08030469135493025
42.75,0.19356174674174886,7.286810947409332,6.765774220401194,0.01924968967196481,0.08766155107177048,-0.12324530285304147,0.2749275546719347,-0.03454282026777048,0.2938990135798722,1.0,0.0,0.0,0.0,0.0,0.0,52.339183012984435,4.951077976374636,5.786397048882583,3.7980419743581884,236.10721858948702,3.790091999999154,2.5000000000003966,-0.6052466097657081,0.21399507592364667,0.15950407105776238,0.002937896149303166,-0.08530901483440716,0.060970318801112644,0.09024373398817158
43.0,0.20369729360562888,7.341204430405774,6.727929953059858,0.01486149110585223,0.06398967848380387,-0.07209976078695979,0.18612857029135216,-0.11365324441334441,0.359321265856251,,,,,,,52.33917849658903,4.951066268836615,5.794508477086242,3.804981155599134,236.63066286064426,3.790092000000313,2.499999999999998,-0.6047055501285921,0.21712301824627742,0.13870647891275006,-0.03221752032681566,-0.07259957429149139,0.08016890448242173,0.08148600845289473
43.25,0.17208100910425436,7.372736579108498,6.728102665223624,0.007882031546786638,0.023119826417445283,-0.03786504544421478,0.14880692334984685,-0.16540022568732188,0.3629283924384097,,,,,,,52.3391739985948,4.951054490727623,5.803269877668004,3.802606945483135,237.13615769421358,3.79009200000058,2.4999999999995133,-0.6037956607823735,0.21742194470444437,0.1310164753063102,-0.04073880951425097,-0.05407524576817613,0.08538620990418315,0.061443399650176936
43.5,0.2043821991456679,7.452095635299697,6.69000543292726,0.0017320028585867335,-0.00786108958538011,0.02296214801837031,0.06061583204151436,-0.26651420850671165,0.44567345365856,,,,,,,52.33916950079131,4.951042747488377,5.8108925423801825,3.8091381025258224,237.69268649158772,3.790091999998892,2.500000000000831,-0.6032382337543236,0.22170309059267757,0.10714133735580485,-0.08080647167135444,-0.03767496743268285,0.11021150719173449,0.05280707214142313
43.75,0.17744331961274948,7.47510611149685,6.6823399266311085,-0.0028874327737334143,-0.04072798655700465,0.0519388891150165,0.02310070020123516,-0.3112235909364676,0.45856306724281387,1.0,0.0,0.0,0.0,0.0,0.0,52.33916500310966,4.951031011472038,5.818654704668074,3.8096271723011563,238.1810452731492,3.7900920000008687,2.499999999999184,-0.6023956236823513,0.22206379256621347,0.09982056232281361,-0.08960846113412652,-0.021411252122032785,0.11717804576508917,0.0370923346164627
44.0,0.05491295930766085,7.37544767064343,6.726104435867446,0.0024212987813398822,-0.0590792653575445,-0.007112559213887716,0.15317063358301797,-0.21546355270196263,0.35058775194517666,,,,,,,52.33916049334965,4.951019237566135,5.817649981017951,3.8064438326766776,238.4446232241495,3.7900920000000204,2.500000000000411,-0.6011232713782387,0.21393165175759976,0.1340272202018681,-0.02204309852941904,-0.009525620052136608,0.09319681451232743,0.020632306957321295
44.25,-0.04462644742582095,7.269819001931327,6.769523433728319,0.011311873789891874,-0.06944637884579918,-0.08466894942278129,0.34497889356594513,-0.09514780776066818,0.2376198719744013,,,,,,,52.339156006675395,4.951007503110606,5.809492625316436,3.807210744485726,238.6291773522736,3.7900919999989973,2.5000000000002363,-0.5999480171575011,0.20457478134784818,0.17674617434497575,0.061247810822435744,-0.0004949530560325764,0.06820343463804142,0.012026992782970723
44.5,-0.20912252006439527,7.129405717110031,6.827991966541998,0.018035005399629926,-0.08871118671992435,-0.16125413092322155,0.48211882010316587,0.029154982193357548,0.09862600499026408,,,,,,,52.33915149773294,4.950995763882059,5.8114780115250335,3.799787803236002,238.89729609754278,3.790092000001572,2.499999999999207,-0.5984115704029699,0.1946933139065009,0.21875530729116158,0.14311866065487006,0.01300198060907227,0.03615890195044963,-0.009006543763872239
44.75,-0.2968886168894873,7.051026965016254,6.862934262340182,0.024355444852724523,-0.09963533769079579,-0.21976375977081197,0.640808843405559,0.12320077979580996,0.003319268339824634,1.0,0.0,0.0,0.0,0.0,0.0,52.33914699537129,4.950983968534878,5.804046218906343,3.802390718615694,239.0773976150412,3.790091999998475,2.500000000000959,-0.5974492812926822,0.18682565606835244,0.2525717831433317,0.20968501095712094,0.020516101222516972,0.015300729289955737,-0.01831776483965775
45.0,-0.23010328081115913,7.155090933402789,6.823505373974963,0.02100564363874809,-0.089180940618261,-0.18238589991312362,0.6798051473501984,0.0778504165043442,0.03983134908374845,,,,,,,52.3391425101036,4.950972041277864,5.784841372563154,3.8311327207664583,238.9949757901317,3.7900920000010716,2.499999999999363,-0.5984659769533645,0.18766854012939188,0.23827072929470852,0.18422399018942368,0.008087937283119916,0.02512681032229964,-0.010288247017090604
45.25,-0.1775793545846744,7.2905129925692345,6.768812594046378,0.012706813915911146,-0.0722246003642558,-0.1081088328120509,0.6059158286244637,-0.016524271161456643,0.10927807445558353,,,,,,,52.33913798962128,4.950959961722638,5.771135188810194,3.865020639861293,238.83685422819386,3.790091999999471,2.5000000000000617,-0.6000407477362084,0.1917101333497198,0.20306287063198616,0.11735015270071283,-0.00984235138760637,0.04113179883033119,-0.0064038384404501115
45.5,-0.04406338675075638,7.441610417361856,6.716308565687593,0.009639918641059763,-0.0602079692595352,-0.06342079472413417,0.6998048853807481,-0.07452392882426784,0.16640786298596755,,,,,,,52.339133504076614,4.950948024249523,5.742330941424521,3.8986595938551334,238.72725448746954,3.790092000000157,2.500000000000406,-0.6013077875961075,0.19314422921632218,0.18802871035579116,0.09186342946406913,-0.02507685636924239,0.057305555777294154,0.010762771468599113
45.75,-0.029916912685266844,7.534608568903146,6.6749495717274945,0.0026899453746694365,-0.04638398737699784,-0.006225805172961803,0.6213849011506113,-0.14490794219415828,0.21358315104382122,1.0,0.0,0.0,0.0,0.0,0.0,52.339129006596515,4.950935992172846,5.734322420300921,3.9282237884512816,238.61109400017278,3.7900920000000284,2.499999999999515,-0.6025554589524192,0.1958207454805329,0.15983196864488342,0.03788742454657083,-0.039188358992247825,0.06728949683121006,0.010075596132583237
46.0,-0.3456380521492383,7.402876636651772,6.701501637739701,-0.0076574251191678525,-0.041174240352179634,0.026526725327041513,0.21309624917395129,-0.16751088115957147,0.1827119917081079,,,,,,,52.339124483396006,4.950923500253627,5.786046952931083,3.939191650886554,238.62599992749549,3.790091999999888,2.5000000000002105,-0.6028302026601425,0.1968871018400336,0.12776274221543546,-0.030729640858181598,-0.039084185416634665,0.048782812283715116,-0.03738920250442024
46.25,-0.7026725287538751,7.211019335234078,6.751119730286436,-0.016437776064998678,-0.04491867924594938,0.03163860309735877,-0.1902245964502511,-0.14848416896141853,0.11479380927172272,,,,,,,52.33912002063025,4.950910991358091,5.849324242902415,3.9439224799404684,238.73330204149795,3.790092000000205,2.5000000000001386,-0.6026037682989346,0.19539529218671473,0.10843112669930015,-0.07471184286874598,-0.032441016781782545,0.019415434380173884,-0.09124935742094334
46.5,-1.1096318986010605,7.037058017894756,6.781636753256126,-0.029266878610304328,-0.035486548369230056,0.0742762139068632,-0.7279556118112741,-0.1859678178863118,0.08272308763192733,,,,,,,52.33911548380698,4.950898530461384,5.913030797394224,3.952819587153597,238.71354108132965,3.790091999999691,2.4999999999997975,-0.6029003701284129,0.19782267551626448,0.06541483147755567,-0.16739488222222,-0.031746069293583916,-0.0012399063260403126,-0.15099962901043046
46.75,-1.388582054940336,6.894863196896506,6.8226574819123815,-0.03665376590154747,-0.0393415900626618,0.0815528779415318,-1.0399127015443999,-0.16675838935143814,0.02554602802357589,1.0,0.0,0.0,0.0,0.0,0.0,52.33911100553771,4.950885946967561,5.965301005518215,3.960176100822537,238.83259762346535,3.7900920000004117,2.4999999999998312,-0.6027978019707703,0.1960423904695098,0.049966294474086854,-0.2016188072649419,-0.028135078393786095,-0.026485042476857484,-0.19415216615337116
47.0,-1.1794468181045925,6.950305941646717,6.8533526228457236,-0.028858685099046752,-0.06824352599262087,0.018910874493099795,-0.6377992040437941,-0.019951446916334957,-0.06320259626153343,,,,,,,52.33910675503052,4.950873309436711,5.964731553289609,3.9673206734103377,239.32724631193227,3.790091999999542,2.500000000000834,-0.6021452279868154,0.18413831537452696,0.10273281992227072,-0.086563670129452,-0.02967430794363243,-0.053789380417019445,-0.17230596777793494
47.25,-0.8444352938924568,7.079277487373035,6.875115596983679,-0.016903751488120577,-0.09528939968015286,-0.04597728616657175,-0.07165436935866346,0.1441145494249185,-0.1414037394669033,,,,,,,52.33910249164419,4.950860461570424,5.948718356962906,3.9747365226418583,239.90964900472034,3.790092000000437,2.4999999999986113,-0.6015197025734763,0.17103984758927726,0.16507665647401606,0.050943151648854434,-0.037358013105783607,-0.07702986738782594,-0.1316702925803565
47.5,-0.5563178784284999,7.157391248265564,6.911932159367168,-0.006969724825936019,-0.13519424125188945,-0.12806422744062756,0.4638553965007936,0.31888492147260505,-0.24535106721555944,,,,,,,52.3390982505788,4.950847742821881,5.940799658891026,3.983370875390148,240.4533287801666,3.7900919999996914,2.5000000000014766,-0.6007107821402108,0.15671267650416573,0.23393924633387359,0.20034684503530292,-0.03599187435224794,-0.1067240638090165,-0.10105236623134427
47.75,-0.31166492683269015,7.24680587781077,6.931550765416491,0.0026367844274097314,-0.15438164983535946,-0.1803648856451782,0.8918746847365668,0.4599211074465212,-0.3154671075645516,1.0,0.0,0.0,0.0,0.0,0.0,52.339094016238136,4.950835059437928,5.933844715719907,3.9887164185289032,240.98676337899454,3.790092000000151,2.49999999999903,-0.600144690989297,0.14563000785613284,0.2827698964568078,0.3082970233135425,-0.04384688953176251,-0.12929278333775482,-0.07130391177971192
48.0,-0.4084498691633811,7.260006187081059,6.923574601710049,0.007470919983604497,-0.10579785027772291,-0.1309729119703702,0.7344660647973187,0.4619295392929736,-0.2744388196047328,,,,,,,52.339089715116685,4.95082215619482,5.951923820726424,3.981252394884942,241.3685170600521,3.79009199999991,2.5000000000000453,-0.600174438211783,0.1479144148227899,0.25156313922487566,0.245884556856388,-0.07071335931972608,-0.1287962766182471,-0.0705187071414169
48.25,-0.6211840231733082,7.224410769680744,6.905575769499354,0.009033842008541758,-0.041496094285255726,-0.058798209481109746,0.37675070849444725,0.4189149143637708,-0.20735110147275643,,,,,,,52.3390855471703,4.9508095939357615,5.977914076779012,3.9692391056353014,241.6807523250013,3.790092000000307,2.500000000000989,-0.6003075499349515,0.15405998772312432,0.19757480962458834,0.13432382263363016,-0.09896062604049992,-0.12298187014750485,-0.08192839923899907
48.5,-0.7603105821867867,7.237622735570603,6.890506821436595,0.01392073431176614,0.018689639124945114,0.006490809766413226,0.14692708017874678,0.4094367191640184,-0.1551403403823379,,,,,,,52.339081200673824,4.950796685370359,6.00090755096807,3.960025680880237,242.06664887755804,3.7900919999991496,2.499999999998197,-0.6004602866054295,0.15773206067881135,0.15550856194751864,0.04912303716805136,-0.13161358715775903,-0.12132588660198959,-0.08426822338474536
48.75,-0.9007816708678085,7.218645072799823,6.879069535832329,0.016134418836872187,0.07033915199014926,0.061351136606771946,-0.09737949797370307,0.3831748926962407,-0.09919789711471735,1.0,0.0,0.0,0.0,0.0,0.0,52.339077045289486,4.95078403427425,6.018922891914776,3.9506175393982668,242.38773582696604,3.7900920000016134,2.5000000000022027,-0.6004926288499332,0.16203500711742658,0.11538056061839402,-0.032798041182315205,-0.155041252644948,-0.11640525771680414,-0.08866748328871761
49.0,-0.7917379925460245,7.156825863045228,6.8556489971574655,0.009070081305425462,0.06549891624229819,0.030717276254392176,-0.06788285892002631,0.35692330872073197,-0.07431857610699927,,,,,,,52.33907395456534,4.950773557016526,5.9922729800433,3.945122439523705,242.5870208691937,3.7900919999977516,2.4999999999978955,-0.6000147068636923,0.1618711708247493,0.11956762549515158,-0.020970489911777856,-0.14317289843581288,-0.1101918055792721,-0.0747178222685864
49.25,-0.572863337168433,7.098724823949979,6.836886435684791,0.0005698076209829411,0.03997864234392109,-0.030258007199468372,0.10692051003293696,0.34008293363848746,-0.05871748295822844,,,,,,,52.3390710607967,4.95076332079759,5.948941199837421,3.942637814349908,242.7589344870862,3.79009200000238,2.5000000000015636,-0.599362856744794,0.1596957102908885,0.1429618201687365,0.03172181839367718,-0.11989384983008687,-0.10272208574477966,-0.0506453213255138
49.5,-0.4657035440379148,7.035901291222675,6.821705372261846,-0.006144986283164327,0.03179774787282894,-0.06153055247249181,0.14500836512380033,0.31071483836296415,-0.032070094422970735,,,,,,,52.33906790426046,4.950752532755705,5.922349749686971,3.9380053596729447,242.93397611028598,3.790091999998241,2.499999999999263,-0.5988528814903387,0.15978770923118008,0.14840313216596773,0.045893986137217,-0.10534142302927096,-0.09464970991755517,-0.03721221531495322
49.75,-0.27719951694609346,6.966239632106024,6.790640311982289,-0.01575666050245404,0.013549891673218028,-0.11693797123065862,0.26059017640474647,0.29090372948901094,-0.016803338715078435,,,,,,,52.33906514343839,4.950742844710727,5.882056776450593,3.933196245197152,243.13434965298066,3.7900920000005223,2.4999999999999307,-0.5982366162904247,0.15790364988588612,0.16543264666859167,0.0852543187521861,-0.08590517153500599,-0.08961919659962432,-0.01641334750992374
50.0,-0.12535611406137015,6.921110397446105,6.787844159998305,-0.020975562996532696,-0.0024301690627442853,-0.15557640709807563,0.37754180052568775,0.26780100730403644,0.009771892795861862,1.0,0.0,0.0,0.0,0.0,0.0,52.33906181259083,4.950731408185877,5.851428852580712,3.9314767097019256,243.27698930678093,3.7900920000009064,2.500000000000573,-0.5977147242676983,0.157476598503596,0.1790556675877043,0.11666858995049034,-0.06779150862384416,-0.07910696842980558,0.002221697171527589
50.25,-0.09409629242893244,6.968280202998962,6.845069090482319,-0.013237094726981528,-0.009860168912002566,-0.1335652436049309,0.4521593550223459,0.2269471253679155,0.05384539501365428,,,,,,,52.339056875722434,4.950715318730345,5.856965512458099,3.9381739145954806,243.19658685106876,3.7900919999980354,2.4999999999993507,-0.597703414576206,0.16171704342725451,0.17743638726962352,0.11404262784154012,-0.058381319394799014,-0.055687016031568164,0.010559287532803403
50.5,-0.03682729511079393,7.0633199023623305,6.939475730460544,0.0007570215718874784,-0.022401465444389247,-0.10556389458885942,0.6264853426002065,0.1947488060653959,0.10773150061575146,,,,,,,52.339051135755064,4.950696729738938,5.867721197935742,3.951795897673707,243.00097956388421,3.7900920000022906,2.5000000000004614,-0.5978583961302193,0.1665755416365395,0.18282197715920753,0.1252567845366274,-0.04776110241520743,-0.025093466975762358,0.024455069260396683
50.75,-0.007766838960017514,7.113333513841816,7.002437613452041,0.008890253458006498,-0.031094500986671176,-0.08153793630002595,0.7051707372630857,0.15049574274898153,0.15372755182793482,1.0,0.0,0.0,0.0,0.0,0.0,52.339046156799036,4.950680473518566,5.873146518317906,3.9585394981779753,242.9281278089089,3.7900919999981735,2.49999999999969,-0.5978039233734763,0.17105950496251382,0.181011296625542,0.12236340876134394,-0.03730208417969655,-0.00016598916828523477,0.03254805234375558
51.0,0.024949427683919397,7.1440993323893,6.977553884633926,0.006972739661868292,-0.04436551367077759,-0.051630258668184666,0.6213762240866676,0.05729191630826148,0.15494496856623083,,,,,,,52.339042695277485,4.950669272430719,5.873297909012315,3.952962061269159,242.98314483425352,3.790092000000875,2.5000000000004365,-0.5976603401597558,0.17547133408960883,0.16554695122177548,0.09469341418449356,-0.027875003486296544,0.014522679396176193,0.030269275085686297
51.25,0.06806519145766103,7.160633987417948,6.935811876709456,0.0018884959239607744,-0.060283899024086256,-0.024747747087183206,0.5077630303289515,-0.05123489766273444,0.1497297889560101,,,,,,,52.33903966546048,4.950659438839342,5.867925421397099,3.9435618839081332,243.10042712332498,3.790092000000148,2.499999999999214,-0.5973794169593769,0.17988233711702384,0.14792271230366136,0.06368973727768742,-0.01606470147052365,0.028282004693226337,0.026938599947665072
51.5,0.07368170495674882,7.169787676884097,6.911657725011127,-0.0012799618982925142,-0.07052981327092347,0.004026754680977955,0.39482971891277197,-0.14357740319394205,0.15495160763838117,,,,,,,52.339036342585835,4.950648548687615,5.866492586261657,3.9359759873751328,243.21722499419587,3.7900919999991753,2.500000000001064,-0.5970857250722882,0.18419864225852295,0.13007961340123605,0.030891405963704932,-0.0063695921526642245,0.04202067123739507,0.022022514046847016
51.75,0.14185333552856397,7.208021459233549,6.861570726201649,-0.005753523063989954,-0.08888184623901996,0.033501443192658964,0.2951698942111065,-0.2523860268753073,0.14175048906044901,,,,,,,52.33903328389274,4.950638757542145,5.8638754657520185,3.9283914051778837,243.2683265856789,3.790092000001009,2.4999999999990967,-0.597010110183024,0.18855712184412862,0.11361228106406535,0.002611583525969619,0.003731197055516085,0.05483479248474249,0.020245224143985503
52.0,0.12769045626282607,7.1979009372418234,6.850486254743696,-0.008853187953684059,-0.09719454587457248,0.05814923300241611,0.18295235066308216,-0.3455255303908661,0.1572230980331852,1.0,0.0,0.0,0.0,0.0,0.0,52.339029868764655,4.9506274972860345,5.859170769977391,3.919340603703199,243.4395259867401,3.790091999999192,2.500000000000196,-0.5965006808126236,0.19309912069717963,0.09587969841662827,-0.030463025990192495,0.016193806264520612,0.07115483880134076,0.015088481211400839
52.25,-0.1350926410137338,7.069309738297987,6.930559932958144,-0.005236569331857725,-0.0734602326571172,0.06165118423885837,0.07598529780008569,-0.3596732029588159,0.2336108230290047,,,,,,,52.33902517555318,4.950611279762246,5.852763813236622,3.907487634608785,243.92679051712247,3.7900920000005307,2.5000000000008256,-0.5948419354813546,0.19613858516648028,0.08144849268519977,-0.06456577154690639,0.02935093521473011,0.08995170719080393,-0.0008974081625995629
52.5,-0.49836754810213985,6.869587942297248,7.071090465473333,0.0005555261374781674,-0.03783339384385419,0.051314480864668985,-0.025108671352145485,-0.3652466870880243,0.35415235672406375,,,,,,,52.33901980543503,4.950592699821321,5.839369313074571,3.892478504238533,244.56761148908785,3.7900919999996385,2.4999999999983133,-0.5924771525560498,0.20012737167580177,0.06758760573852221,-0.10079438728795685,0.05068019154662714,0.1184711829389807,-0.018707323539295245
52.75,-0.7619365435918146,6.741946210026403,7.147832437110484,0.004299426258797937,-0.013268635646449266,0.05603481236001364,-0.134358236737435,-0.37227122613628094,0.42889747448147647,1.0,0.0,0.0,0.0,0.0,0.0,52.33901517829487,4.950576553637621,5.833474280773929,3.880738948788688,245.0742402296595,3.790092000000298,2.500000000002019,-0.5908227940214142,0.20274604410653804,0.05308162160315237,-0.1348750619568391,0.0620104147167148,0.13538204680004062,-0.03499463330641259
53.0,-0.7918885360814167,6.7965633271272266,7.006465365875931,0.008230318274344114,-0.003959901864037547,0.06448981408761888,-0.1629565680117761,-0.28985900490850824,0.3496428085332433,,,,,,,52.339012066883726,4.95056519057778,5.843410239268354,3.8755224927267253,245.35707684608434,3.790091999999823,2.4999999999982787,-0.5907340003848429,0.19601968047293866,0.055927967295768446,-0.1277252202028214,0.035743501125857564,0.10456554385656985,-0.04559484157399341
53.25,-0.7357360519934958,6.907784188771335,6.799624725587887,0.011989977235976558,-0.00010784354980960463,0.07731905950733506,-0.17530378082296255,-0.1884825737015567,0.22753998487853047,,,,,,,52.33900947736087,4.950555460118933,5.857678783782239,3.872119725847464,245.57080351341426,3.7900919999999436,2.50000000000102,-0.5911496859604772,0.18697214126348716,0.06226674694150969,-0.11104599331501472,-0.0014646335606027742,0.06099389975416035,-0.05292915318555771
53.5,-0.752859341567086,6.974045116725062,6.6620896576505,0.014736344131752638,0.005529500287106235,0.09496516143476202,-0.22119098594739903,-0.11629883601863808,0.14781846687560618,,,,,,,52.339006568700505,4.95054464502098,5.870401780086072,3.8682457922657756,245.8212081894422,3.790092000000324,2.4999999999997407,-0.5912149260889451,0.18076446027345228,0.06195188813243667,-0.10931956928175787,-0.028052757647299253,0.030352951832826096,-0.06434957536616998
53.75,-0.7169387698199547,7.074026307551491,6.450882168609098,0.0193643403952382,0.012624548638149168,0.10139943368509424,-0.22616567400932944,-0.008518160018503574,0.02600203176678713,,,,,,,52.33900380719791,4.950534508908952,5.882101378971524,3.8634784106921436,246.06868441570603,3.790091999999563,2.4999999999997797,-0.5914725026010654,0.17136967347692095,0.07007911755411392,-0.08996342601817599,-0.06479180288151516,-0.013169285306089126,-0.07225615460631996
54.0,-0.70371778809708,7.150288823139072,6.312804962609979,0.021716295934009335,0.015878268517676167,0.11801172538914328,-0.25961141438435376,0.06427548849389865,-0.05727591857685574,1.0,0.0,0.0,0.0,0.0,0.0,52.339000995242,4.950523899624729,5.89635829025689,3.860640781999072,246.2788774044589,3.7900920000003184,2.5000000000002536,-0.5916894456051733,0.1650465502270479,0.07121061366204728,-0.08467768198993021,-0.09193221209826341,-0.04480240084530422,-0.08109623258062121
54.25,-0.7468661289998431,7.137820870077082,6.412702818026068,0.015544317051240857,0.0027579293084453527,0.11882362986991732,-0.2527503831994638,0.06103844435217211,-0.04165286555665893,,,,,,,52.33899776393844,4.9505110913207115,5.913978725836378,3.864406809713538,246.28427191059012,3.790092000000031,2.5000000000001337,-0.5917037047745519,0.16554222597098708,0.07178550358914094,-0.08275982255768231,-0.08222543466999088,-0.04514963126195489,-0.0892797269907916
54.5,-0.7318013770997528,7.119385869605782,6.550848927285332,0.007285786469421171,-0.016495965163895576,0.101211729339273,-0.1874028352498439,0.04846116387852966,-0.016245758609115334,,,,,,,52.338994477137156,4.950497944126176,5.93265653499247,3.870423770520039,246.15621608714824,3.7900919999995057,2.499999999999277,-0.5919285510701502,0.1667970932565267,0.07962280540702577,-0.06614478205811247,-0.06488608789551607,-0.041218259350590813,-0.08940435981658845
54.75,-0.8065540043236222,7.098832215062377,6.682842603324142,0.0008643672388010739,-0.029631129979998994,0.12033977375785178,-0.22923420856601132,0.02677927774792215,0.021173941999019397,,,,,,,52.338991275769345,4.950484999794603,5.95250937868061,3.8747942518409926,246.19477197898374,3.7900920000009695,2.5000000000012528,-0.5918719052654083,0.16905626161679105,0.07147509264623692,-0.08140385040442995,-0.05334619775163408,-0.035738897391081055,-0.10097866722929147
55.0,-0.7818093271331155,7.0865826824133595,6.789968165300757,-0.006995664980031059,-0.047536377783658594,0.09340443172938387,-0.141508714154196,0.027269374935504617,0.02977779185609034,1.0,0.0,0.0,0.0,0.0,0.0,52.33898797377617,4.950472041414249,5.969388953819178,3.880005797522772,246.06551574846696,3.7900919999987153,2.4999999999985296,-0.5921105506521741,0.1690113182070562,0.08382118598024323,-0.05606103387357853,-0.03856538408507464,-0.03646667433648579,-0.10039601834663624
55.25,-0.41967879747833725,7.131134169510894,6.737310855509897,-0.012605372479922362,-0.05978921957899029,-0.02256351112421765,0.19896807221062232,0.07414275018663315,-0.03381436875260624,,,,,,,52.33898428387805,4.950459225306394,5.98302692715822,3.8851379212148167,245.51465058183598,3.7900920000012777,2.500000000001263,-0.5935490364705266,0.16460619178842864,0.1346592146792058,0.046938064602808416,-0.03311811013401331,-0.05220755711459606,-0.056793727469860354
55.5,-0.017008322090542538,7.184526288346832,6.6390369002982865,-0.01717870141898699,-0.06706234270876259,-0.15064284277679843,0.5727435703678765,0.12938021132542196,-0.11136933345639512,,,,,,,52.33898044299092,4.950446428475356,5.995465609539832,3.889785708255174,244.9085216449075,3.7900919999992153,2.4999999999993143,-0.5951624359100144,0.15943777548680146,0.19024638377211384,0.15904367365408212,-0.03150873230945265,-0.07091363737826856,-0.007192040320871695
55.75,0.39454067949051713,7.234639384630346,6.571055649339908,-0.025272292800752213,-0.08799894456259297,-0.3071037883744416,1.0220524925055843,0.20352393502923086,-0.20968302957945087,,,,,,,52.33897684561606,4.950433979235001,6.005192371459509,3.8952208733773976,244.27348806949743,3.790091999999847,2.500000000000016,-0.596668796451493,0.15195015029526265,0.26024677056841344,0.3000030286916864,-0.021917045000184758,-0.09568472204757066,0.04015897214591066
56.0,0.7573032778372845,7.281841400426219,6.495932788534362,-0.026863417685672436,-0.08558149702120386,-0.3917540012116706,1.2814495630013587,0.2268953608186244,-0.24513132733090054,1.0,0.0,0.0,0.0,0.0,0.0,52.33897286051406,4.9504206046075,6.022412971768064,3.899852457963885,243.73236822303426,3.790092000001263,2.5000000000004277,-0.59826908668821,0.15050713370173247,0.29510587888541523,0.37112574368384393,-0.02441121692220042,-0.10313032183590057,0.08801677495406615
56.25,0.7912669758217482,7.285045679387548,6.486852086491331,-0.010765481939033705,-0.01918085118506877,-0.2308315932886181,0.9048645175825674,0.0870363293193355,-0.06904519105673958,,,,,,,52.33896783932211,4.950404507591795,6.058695651858738,3.903313091260778,243.60923153598966,3.7900919999979727,2.49999999999958,-0.5995114578004401,0.16823754367186733,0.2136278542884084,0.20950467566219522,-0.05553917229192854,-0.05352459612914503,0.11437119359313047
56.5,0.7669883947464038,7.284665524596074,6.4936575436018416,0.016066146359835203,0.08395974047211513,0.04952152960881035,0.22087351688361878,-0.14154415299818568,0.22232541708620768,,,,,,,52.338962151488225,4.950386473041935,6.109373714306759,3.9069426845628463,243.57252025920735,3.7900920000020397,2.500000000000012,-0.6010536322049554,0.19680305264384035,0.0740824187736429,-0.06730163116566464,-0.1048153263848324,0.027812446324583476,0.14491182079614648
56.75,0.7763942071886142,7.279890007392119,6.497000474046358,0.032445174610941374,0.15015542895531597,0.21816195916578235,-0.18174478631896282,-0.28637551591972277,0.40438737521664203,1.0,0.0,0.0,0.0,0.0,0.0,52.338957164016584,4.950370459728258,6.14499327862354,3.9094382462800894,243.5137680072403,3.790091999998767,2.500000000000546,-0.6021306822321303,0.21494466545310148,-0.011051521482702279,-0.236010512701954,-0.13503467573327912,0.07913324998069379,0.16835821784992672
57.0,0.5916439194820007,7.203045180452645,6.623346491622572,0.02994021650213686,0.1348944900786048,0.225639029604321,-0.1657527100931219,-0.28379338443579516,0.4017442259779378,,,,,,,52.338953871405245,4.950359445039257,6.138225558442509,3.9067595141155786,243.734437162502,3.790092000000015,2.499999999999095,-0.6010141238953113,0.21439760338367714,-0.009807865570297895,-0.23378106883954847,-0.11842042433234502,0.08100705059438684,0.14541078858111037
57.25,0.39030658471016,7.1032926614187915,6.79067512568463,0.022201956788608822,0.09375770461564609,0.17633217402452891,-0.012132537577179324,-0.23668327393407165,0.343398423318525,,,,,,,52.33895109290041,4.950349878974014,6.118670253379234,3.901275145283159,244.04375081387423,3.790092000001038,2.500000000000839,-0.5992529657575643,0.20821774363820797,0.020222432809857173,-0.1737926958875778,-0.08635185327364328,0.06864264720639571,0.11399615353209387
57.5,0.21995237414252733,7.027799124258481,6.9094935997378855,0.016637824903628747,0.07145158272008678,0.1574840905253567,0.059884653488675,-0.21851836247495682,0.318255247358036,,,,,,,52.33894792681488,4.950339119951161,6.110777188408642,3.8983570939155885,244.27177053054285,3.790091999998537,2.499999999999655,-0.598081658877357,0.20545393572193424,0.03283921730967919,-0.14889317203675237,-0.06582752007048441,0.06369335103642763,0.09027200055585739
57.75,0.006077821462890147,6.9352169689547924,7.063544116339354,0.01079600730076699,0.035458594217874506,0.12324181503814921,0.19635998604053148,-0.17487567339756402,0.26677027110473744,,,,,,,52.338945076158616,4.950329562376845,6.0916603665065825,3.894325917572502,244.52413092292224,3.790092000001196,2.499999999999713,-0.5964584871544006,0.2001572574516588,0.0576752455813446,-0.09984794227859749,-0.038124567122241104,0.05342680513394207,0.05848684621999642
58.0,-0.1470084238349581,6.845821713548709,7.2144885102201775,0.004984951490637731,0.010870123995439409,0.10186188301626141,0.24749142927139578,-0.16563977624888251,0.2506685468698515,1.0,0.0,0.0,0.0,0.0,0.0,52.33894190438262,4.9503185167792205,6.083863504328711,3.8888461583072127,244.84094174973512,3.790091999999526,2.5000000000006906,-0.5951116134837678,0.19798702070007312,0.06896903170077259,-0.07638687330518477,-0.01364249448986409,0.05144567771324873,0.037428383896493396
58.25,-0.21066430096231917,6.774738152357552,7.352881503294725,-0.00015005483962143168,0.03747280694442908,0.18041933170875782,-0.11650493827072184,-0.29921314310389996,0.3787016176428526,,,,,,,52.338937449288125,4.95030190802092,6.117867888969863,3.881842866170367,245.37311197842428,3.7900919999997247,2.4999999999993747,-0.5948401332867054,0.2091567372802515,0.010113842369507681,-0.18913651909273926,-0.010018305766122945,0.08216864613823084,0.039037881434774685
58.5,-0.1746470083164041,6.678769456603898,7.564003510362195,-0.002822968833231398,0.0773178222179665,0.28767522950649105,-0.647476747290483,-0.4988390533330479,0.5764988042099469,,,,,,,52.33893254609332,4.950283088225086,6.1634886591922164,3.8678961808482004,246.13680112306014,3.7900920000007026,2.5000000000001577,-0.5945657600263492,0.22654093414066848,-0.07394769565797199,-0.34786608022908455,-0.005383724384865199,0.132927820532916,0.05981793342604589
58.75,-0.23485146550461963,6.6119752574369315,7.685487033021438,-0.008483845334858532,0.10231296817229826,0.35879210122169225,-0.993215556674479,-0.6243273195705507,0.6976308123616883,1.0,0.0,0.0,0.0,0.0,0.0,52.33892810066105,4.9502664752066785,6.197493406686691,3.861774896307187,246.62945967734274,3.7900919999994085,2.5000000000004685,-0.5943550341529198,0.2369585764375161,-0.1289587216233036,-0.4535007891015119,-0.0017482325706457474,0.16110611419716495,0.060855047545254635
59.0,-0.4886113662324016,6.624408251080101,7.585671583202722,-0.0201951360096049,0.10526287385293426,0.38698538759891027,-1.0770928924270806,-0.6131874197877415,0.6698476446641991,,,,,,,52.33892419024086,4.950252705761207,6.21139682004796,3.874086737883824,246.4383296748505,3.790092000000005,2.499999999999052,-0.5948189983956705,0.23471717104511516,-0.14017499752386087,-0.48184182305221795,-0.011338382567009201,0.14227294856253897,0.0197215889684595
59.25,-0.737211455467406,6.650747068099546,7.430408450100679,-0.031350610018158975,0.09312862261674866,0.3777400868734853,-1.0194225909097834,-0.542076139618494,0.5860508082285371,,,,,,,52.33892051195396,4.95024009884857,6.213009995501698,3.88979327732564,245.9993653172706,3.790092000000806,2.5000000000010965,-0.5953579283666623,0.22744016585255364,-0.12525838942353934,-0.46058509456431757,-0.019606569798437334,0.1085832977144412,-0.02628424130660754
59.5,-1.0697853086129079,6.67526021643145,7.293509526392352,-0.046175767993659814,0.0944327298013268,0.4014189050137544,-1.0600892820635575,-0.5140566295991363,0.5392696843258173,,,,,,,52.33891677508744,4.950227043650947,6.227269000457099,3.9061966001574717,245.7587475686457,3.7900919999985665,2.4999999999991327,-0.5958384982954584,0.22321854842411848,-0.13145018983800352,-0.4812314045271356,-0.030321011826149935,0.08230850086103218,-0.07977366831846089
59.75,-1.2551786051386873,6.693151340328377,7.171694083274879,-0.0548460730037595,0.08501574081414098,0.39814838912028366,-1.0419775085247767,-0.4602790544693148,0.47308459359735544,1.0,0.0,0.0,0.0,0.0,0.0,52.33891296151885,4.950213908002925,6.229500076509053,3.918286083496064,245.38633250039376,3.7900920000015814,2.5000000000003846,-0.5963522232781615,0.21779084859311598,-0.12212945884667975,-0.4689977873135125,-0.038068922541390667,0.05536801645951699,-0.11537622696846475
60.0,-0.8993138492707813,6.668955797569056,7.140479994568226,-0.03983215597393045,0.04334146063132406,0.2842734857839964,-0.7716311227266918,-0.3355685780251387,0.3861577180698192,,,,,,,52.33890902572328,4.950201046671307,6.199973432161324,3.911603977555834,244.81721038685205,3.7900919999988214,2.500000000000179,-0.5964854647145764,0.21034383296015302,-0.05654744500649121,-0.3372533241928668,-0.02494275284672996,0.04067898729857662,-0.07678142622349879
60.25,-0.41138245518882005,6.641912719790625,7.143760321356197,-0.019104324520757873,-0.00028539504702825274,0.15880471798956858,-0.4887131526078833,-0.21043250131055036,0.3034594681839178,,,,,,,52.33890500492842,4.950188054848386,6.165135404126843,3.8990436833317608,244.27696036065657,3.790092000000524,2.499999999999354,-0.5965653373721785,0.20362012447688058,0.013570771588762937,-0.19354705588412277,-0.010172178282237425,0.03144735613443331,-0.019077628475932536
60.5,0.02844451176377602,6.606989628570621,7.1277550036908774,-0.00108867379837682,-0.04775299408680136,0.034301505523565576,-0.2041979273430286,-0.07806823134678945,0.20976512785190637,,,,,,,52.338900961038156,4.950174841102379,6.130336241843743,3.8900524617094314,243.63600567268486,3.790091999999936,2.500000000000931,-0.5967404379178067,0.19605537813308604,0.08503889989569031,-0.048623538875009975,0.004912578391731072,0.017474879132747336,0.029693969896634472
60.75,0.409964611886886,6.593037273972976,7.108481602608951,0.01575182495695489,-0.08554362065665234,-0.0781835712880683,0.060046128362317736,0.04145955641284884,0.12992196681065687,1.0,0.0,0.0,0.0,0.0,0.0,52.338897062401784,4.950162220975264,6.099927669452049,3.880764225922755,243.13983388335853,3.790092000000152,2.499999999999023,-0.5968168695733397,0.18914700027258674,0.14869502385148806,0.08017226101017078,0.016696088401990668,0.005715087043734708,0.0735339474777162
61.0,0.2596967442428428,6.7215552772485285,7.015968701447143,0.010897692278915556,-0.07174128517652406,-0.055002185452099756,0.01360624992649149,0.0861337048192587,0.03522800311085823,,,,,,,52.33889373244988,4.950151576539978,6.083090282089016,3.880769201182884,243.05139123806342,3.7900919999993135,2.50000000000078,-0.5973873513598871,0.18281901675218198,0.1431631371900784,0.06689399285019366,-0.014175351112454652,-0.026545440888164806,0.04485880050622364
61.25,-0.09813099289963884,6.8945646447095745,6.887963788408165,-0.001746899598711511,-0.04140692221291405,0.007623101727579208,-0.1146425469912188,0.11219298394422052,-0.061866187863562336,,,,,,,52.33889065532098,4.9501417788375015,6.070583258370234,3.8852545436294297,243.06901640034425,3.7900920000011924,2.499999999999635,-0.5980727770064933,0.17629500942102236,0.11771764947018509,0.011022794965984774,-0.05738468175366972,-0.06581722752482741,-0.011496635068443261
61.5,-0.24746328329909384,7.015684553914555,6.796405670826397,-0.005160970978313074,-0.02671835372596619,0.02182133880628061,-0.12974987262173607,0.15545944122550326,-0.13540289592102395,,,,,,,52.33888736627904,4.950131280637365,6.058381101493011,3.8850809281289633,243.05181576544342,3.790091999998911,2.499999999999878,-0.598442046000904,0.17063169232336206,0.11528076641097994,0.003194655272757311,-0.08330066790686726,-0.09209618047441613,-0.03683230983477344
61.75,-0.5590905622056134,7.191659647123666,6.6756351697289125,-0.017682811254104366,-4.454906012783333e-06,0.08634986752499499,-0.27472857185232735,0.1867258934423494,-0.256756857444072,,,,,,,52.338884213777106,4.950121280101957,6.0405337240597605,3.888418856495883,242.99374313898073,3.790092000000235,2.5000000000004765,-0.5993203927002385,0.16334981858843967,0.09030689131467483,-0.05003009023250346,-0.1301011556034853,-0.13682660724928236,-0.0904666778216172
62.0,-0.7795315839050174,7.315420922526122,6.5738322913096185,-0.02271173282158743,0.019602982765815846,0.10726758623859897,-0.2970734933530301,0.2215463830430689,-0.3125880189803185,1.0,0.0,0.0,0.0,0.0,0.0,52.33888099501675,4.950110916084227,6.031831411776751,3.8900359797425996,243.02988544286316,3.7900920000009872,2.4999999999995293,-0.5995827994200369,0.15831832933980802,0.08355421325967043,-0.06827034359697721,-0.15529634528356182,-0.16012604354373522,-0.12303576878943569
62.25,-0.6179083165429816,7.265410520432651,6.561910556951156,-0.005320549128124274,0.007866781715568687,0.004009197294988002,0.02487259890932295,0.24986668174414342,-0.18684927183325578,,,,,,,52.338877262027474,4.950098134234251,6.05154139041608,3.8847006590792583,243.40138711658273,3.7900919999981393,2.500000000000057,-0.598038867940559,0.16067384700452492,0.12915273364341698,0.01895333641945817,-0.11357430973183308,-0.11913452604852158,-0.08240137470131408
62.5,-0.46829017629825365,7.1867799512127535,6.558304063741884,0.01307428025009492,-0.005325182384428091,-0.1089211204101918,0.38563324588374304,0.2632315125023922,-0.01649927166560446,,,,,,,52.33887346638519,4.950084783288031,6.076858635807612,3.8803262473504128,243.8631407489471,3.7900920000018936,2.5000000000006044,-0.5961150483822273,0.1649790752698109,0.17726257910243035,0.10987694165181419,-0.060121184403324535,-0.06498614896046635,-0.038447963155309337
62.75,-0.313797607427399,7.118939046494474,6.543279342068444,0.03425396481236035,-0.015019171118241524,-0.23127272933747897,0.7610273468121851,0.29669884053305823,0.1516466659687724,,,,,,,52.338869813289314,4.950072306829731,6.101795502848412,3.8748348108528456,244.26914340881115,3.7900919999989546,2.499999999998823,-0.5942627498564007,0.1685554822753249,0.23009227644555952,0.20874012436891254,-0.00945741121996826,-0.012664896504842878,0.007703483000798904
63.0,-0.11730964530376455,7.057444698319821,6.5461690091093345,0.04942167174264515,-0.033178372862175835,-0.33028365047454866,1.082467169735149,0.3096104534693097,0.26941655194461017,1.0,0.0,0.0,0.0,0.0,0.0,52.338865908353455,4.950058621007102,6.122699692018741,3.8699209549892783,244.70679232027635,3.790091999999755,2.5000000000013527,-0.5926686637942543,0.17116358301491197,0.27402582079492277,0.2953835927574935,0.035186821813182334,0.02828232392396997,0.05025071925429607
63.25,0.04347989612726021,7.080540709979226,6.566227065314666,0.03679873822467693,-0.0633226054295891,-0.31392761545284664,1.1200710815997845,0.2606202411399799,0.16875754487237069,,,,,,,52.338861442564216,4.950042080312743,6.1170642019089225,3.870292243616716,245.0840257677433,3.790092000001417,2.4999999999990266,-0.5925494242048673,0.16801984358001962,0.27150454896845166,0.3048360573142594,0.03669598092029057,0.010998303877699112,0.05257692569023124
63.5,0.3688193266952799,7.128270766244582,6.612100339632025,0.015341850592634255,-0.1120779256589251,-0.2708893798534198,1.1016550751246441,0.2008923948259703,-0.05816790114087601,,,,,,,52.33885655722206,4.950023932264257,6.107217143522748,3.86960830277144,245.52839512974154,3.79009199999801,2.5000000000001696,-0.5930475213680828,0.16098794895799454,0.2621749725172858,0.3130858150872151,0.023057672508058576,-0.035906183735048884,0.057508596239638464
63.75,0.511727272149544,7.15206319825263,6.6369175831786515,0.0022905481990584055,-0.14175534540248125,-0.24725944219455567,1.110833226647365,0.14614681434856447,-0.15745302956312004,1.0,0.0,0.0,0.0,0.0,0.0,52.33885209078861,4.950007342299202,6.098369864479754,3.870351438549744,245.86312271259496,3.790092000001859,2.500000000000733,-0.5929832170319538,0.158216179954219,0.25607866160572124,0.31503893118911475,0.023618435960882606,-0.052772448639019205,0.05697422816845196
64.0,0.21077607262019085,7.177640897916988,6.629193110284728,-0.0026367431355005097,-0.1274878496151949,-0.20556196011363292,0.9790462503895984,0.07983484340643121,-0.07577490747784217,,,,,,,52.33884844228626,4.94999375179561,6.069285313844735,3.8772938266942267,245.71081890465655,3.7900919999988196,2.4999999999986695,-0.5927224386154003,0.16249489318039617,0.23073159638533675,0.25507460353680256,0.0284006535160772,-0.03123864806889244,0.023373061853478528
