,Acceleration x (m/s^2),Acceleration y (m/s^2),Acceleration z (m/s^2),Gyroscope x (rad/s),Gyroscope y (rad/s),Gyroscope z (rad/s),Linear Acceleration x (m/s^2),Linear Acceleration y (m/s^2),Linear Acceleration z (m/s^2),Latitude (°),Longitude (°),Height (m),Velocity (m/s),Direction (°),Horizontal Accuracy (m),Vertical Accuracy (m),labelnormal,labelbrake,labelstop,labelturnright,labelturnleft,labelaccelerate,pca_1,pca_2,pca_3,pca_4,pca_5,pca_6,pca_7
0.0,-0.5223616715486324,0.543562461679898,7.96712421486673,0.0002023493245819052,-0.004786083978574968,0.008548236787000786,-0.012149468359854355,0.0956658645554051,0.05112212857052938,51.29159320602682,4.869920060312123,-3.2116448278362357,1.1044684351767389,137.0909452135937,5.706761590847594,3.5958460939741337,1,0,0,0,0,0,0.02540437244966942,1.1493881357521927,0.31401271804926656,-0.12702218199323612,0.042188432559059685,-0.03400593399520842,0.0902527771449696
0.5,-0.4493067878273251,0.6301589690821671,8.37908285110181,0.002058994363006958,-0.0044694580203398495,0.025108660309942722,-0.07550644081480179,0.10876134092374178,0.047282116901802174,51.94992006010988,4.904270188371424,-3.2439436827378785,1.114890870739554,203.82250755042554,5.747844051079826,3.6212528076054444,1,0,0,0,0,0,-0.18536945319244985,1.145092250487191,0.26983096363840847,-0.1491404042571654,0.008270754540498998,-0.03370449083634059,0.1092732411118724
1.0,-0.7679846782532587,0.8200940907825884,8.721652305959493,-0.0029706001605176668,-0.026622721793020148,0.0836082020830336,-0.1331519591874994,0.7098932708114187,0.023791663024605843,52.211501272510155,4.917604198980079,-3.254113993786443,1.1184794314250597,214.56292979405097,5.763412672969446,3.6309048027240736,1,0,0,0,0,0,-0.22022355272843502,1.1683415682808485,0.2754278589594973,-0.13174171142574795,-0.05569104516779658,-0.05636051240509334,0.16469011649201498
1.5,-0.765699514303862,0.5767020575829509,9.331544970938216,0.002790914264858587,-0.09400267104218579,0.16667932704389588,-0.3893784179239397,0.26309906566588837,0.041469897812952586,52.30265957619432,4.922341510194908,-3.256910220242302,1.1195516350198211,216.05878864762172,5.768638077714254,3.634155378085312,1,0,0,0,0,0,-0.22466473886929497,1.1539958632030283,0.24620236238341262,-0.24833337350531676,-0.169906913070539,0.001017718980673099,0.156958481705318
2.0,-0.004132668888832347,0.8953991623501492,9.243598502495704,-0.005673665919114812,0.04603192927078653,-0.12367474619012997,0.3666255554090132,0.388227465347342,0.04203796049361775,52.334006444274685,4.924145992666342,-3.257671015928815,1.1198679015964004,216.2665090532909,5.77036798642879,3.635235178327238,1,0,0,0,0,0,-0.23947899810766538,1.1429015693828304,0.24972724171731395,-0.1331407273133085,0.13687885630444485,-0.14494130717177067,0.10051028912655396
2.5,-0.44687353265150725,0.6525430843210105,9.752318987783546,0.016245751305477764,0.03983981634444955,-0.20630802339130916,0.45904339537373584,-0.2446514926595813,0.05953093689819519,52.34484964360869,4.9249696392355595,-3.2578778523046674,1.119961085952146,216.2953522230722,5.77093982313983,3.6355933312217967,1,0,0,0,0,0,-0.24169135309081982,1.11932534453678,0.27165729144416845,-0.23382679133880857,0.2091031729665817,-0.13554756251734018,0.07757882173293146
3.0,-0.032548685446659065,1.128528867217784,9.195785609415655,0.011603045655085551,0.03412908118269365,-0.41970859940760846,0.5085922904101369,-0.2272053743353263,-0.0008337510940036388,52.34868336765722,4.925466132005621,-3.2579340813744553,1.1199885389952127,216.29935725824083,5.771128817727488,3.6357121051445147,1,0,0,0,0,0,-0.24891822275602005,1.1392850257318017,0.2590983922237298,-0.1369257906949059,0.30479786375999374,-0.13381644742809584,0.06746117275312458
3.5,0.09356374581721882,0.6258379624878921,10.056641196648341,0.023023539435271547,-0.1161317076865771,-0.021905835583905686,-0.061900330589022556,-0.06942278679489355,0.04972780076159853,52.34998848589694,4.925625323699945,-1.9310497257867982,1.2081707152924317,216.29991337972416,5.229876569289176,3.635751493311556,1,0,0,0,0,0,-0.2105790261417601,1.001322285783104,0.19092434262481284,-0.2692030609042359,-0.06870735481478388,-0.019853883460918747,0.11849273115380679
4.0,-0.03916093857562822,0.7745406064128647,9.386221482656971,0.008343253872520969,-0.033700822260394364,0.19011013835643642,-0.31051985233025475,-0.035859964612457905,-0.059432447247466845,52.350426963671765,4.925671729125209,-0.24343434938260833,1.3223239181257904,216.29999060029553,4.509679420717014,3.6357645553081523,1,0,0,0,0,0,-0.18254061786444115,0.8663831911578184,0.17605654606240148,-0.16629174802325317,-0.12333995717900277,0.06962891415833179,0.1522994709187635
4.5,-0.4476167898102308,0.3762955553876579,9.737211420039106,0.020498609165735492,0.010416281922872965,0.21873316605778204,-0.12395548132950468,-0.4507317271515086,0.13849660848290296,52.350571786839325,4.92568179899821,0.6132964922131267,1.4300205319410442,216.30000132280279,4.149784947737997,3.635768886957225,1,0,0,0,0,0,-0.16836311742140952,0.7582191575113367,0.18692856680129954,-0.23672690839110913,-0.053176057390952935,0.08020005997280033,0.1382960058963877
5.0,-0.7512782868218209,0.466567178001266,9.474509704414196,-0.016741351287682647,0.03631746632464937,-0.059802733395456276,0.019283307341518563,-0.14859293898745185,-0.026728097683232005,52.35061625654641,4.925680071162172,1.2441499913117275,1.5358149874662388,216.30000281168276,3.9089697199713114,3.6357703234285252,1,0,0,0,0,0,-0.16064365506242628,0.7122565033266394,0.20734081877013627,-0.15071232885465957,0.09766130261158856,0.004003464536593598,0.16915067478986878
5.5,-0.24793040981352732,0.5407475552422841,8.959503652941656,-0.030063736345128468,-0.03596916142892072,0.13161595801109743,-0.19504818312190286,-0.48719453265739043,0.2268789977715809,52.350623920422606,4.925672820340499,2.1240280827487834,1.7891814677912707,217.50559994977397,3.829380818446726,3.456395298597616,1,0,0,0,0,0,-0.13078361144782882,0.5944178399088108,0.13918850513929396,-0.126771765289143,-0.06238643288957976,0.15987346392882415,0.1415141383268423
6.0,0.13263305722062835,0.2687231276268074,10.408923735633277,0.009836607614738126,0.05191070778775933,-0.1475272823004481,0.3444146758319796,0.041359455699941705,-0.2967713651901155,52.35062151734668,4.925663727961108,3.0716039234838703,2.086023824704337,218.87861391155374,3.8030768620779214,3.2175348852345045,1,0,0,0,0,0,-0.08873254916629826,0.3896991877824535,0.13384520603230549,-0.08305655330541206,0.13853073461254986,-0.10293642814898571,0.10457965915446968
6.5,0.2254661210764418,-0.6641802209517103,10.892265521482026,0.035298875023082814,0.026342414113147524,-0.15950203032095628,0.35154203526079997,-0.36735021766028314,0.21123601687806448,52.35061567399299,4.9256533858558385,3.5990232899080707,2.09940949410818,219.19843096911518,3.7943834625287756,3.0253244914860837,1,0,0,0,0,0,-0.05786499331541837,0.22316852902847328,0.1446594999665423,-0.21554397048864232,0.1230025547309257,-0.10732284417016177,0.04236863684749122
7.0,-0.516136414920594,0.1144815479714767,10.085976067238388,-0.02004407847687066,-0.010050837961952244,-0.044450571700712385,0.39157292099627433,-0.03546944471586472,-0.01926247996399147,52.350606143896066,4.925642309205119,4.012222594106069,2.029286760442534,219.37200575920593,3.791510313156825,2.848584442463884,1,0,0,0,0,0,-0.03469998197761877,0.1929117013577849,0.2207805001506747,-0.0527849829864922,0.047297947900568675,-0.0018854974161672923,0.09182549783240129
7.5,-0.7295955245950032,-0.4641606061091127,10.751323772891935,0.04826968635974287,-0.04838028644673588,0.018445413151691237,0.033233079286915324,-0.21488621739464742,-0.04959467689094135,52.350597864955965,4.925631305473979,3.899792022536127,2.0403708190864056,219.43916743641805,3.7905607436280273,2.7791430342107097,1,0,0,0,0,0,-0.015233153554262854,0.12701153800520537,0.22209348720052519,-0.16928941486736857,-0.048464145855495924,-0.00781767721528007,0.0708343552508847
8.0,-0.6743055722468374,-0.5811075938530454,11.13942206037904,-0.016761438851364482,-0.009566634373691436,0.02840669281738729,0.3056502277934661,-0.24636786311636708,0.054121200135452324,52.35059001358589,4.925620326056791,3.644468269259913,2.0753788215693323,219.49155305907314,3.790246912993663,2.7452844040667954,1,0,0,0,0,0,-0.01412481845018661,0.10377402525721181,0.22500666768346864,-0.17785411688687408,-0.016809359696493935,-0.05233612121828414,0.036968656448960566
8.5,-0.687306549273677,1.140399029465356,8.033787622331126,0.009823526835798665,0.06888708277934164,-0.014583129996796524,0.7488909720871771,-2.681217471591324,-0.8326759280178974,52.35057979726994,4.925608401218109,3.529665647017835,2.4454427154967324,221.26417578318205,3.790143192661367,2.6576989495126018,1,0,0,0,0,0,-0.029885943154853628,0.1502708819799001,0.19491065182059217,0.09019225546775148,0.2392705262173498,0.31020465468885605,-0.0778486040059864
9.0,0.6005738817377284,-0.556647782651805,10.795365862059052,-0.03432208849359926,-0.04534732794634096,-0.0994317723562256,-1.2435783958624622,-0.05443133004654399,-2.0512891972755045,52.35056877275796,4.925596161142639,3.453063927789763,2.914216513499447,223.27566302853685,3.790108913320367,2.5522964835197013,1,0,0,0,0,0,0.032270813226236233,0.017658706958671156,-0.006283978054158508,0.01181637288071689,-0.28875503888325543,-0.13979290974667047,0.017497337420524835
9.5,0.21704212607823503,-0.5009259486175023,11.244779247247452,0.025077529810092515,-0.032702850873956316,-0.07484779814718956,-0.3698078643513575,-2.1857477503818337,-1.543331851736366,52.35055747205327,4.9255819088988915,3.408934141759942,2.9182961966033143,224.58833993301977,3.7900975840737923,2.528305095486533,1,0,0,0,0,0,0.01536778028932863,-0.03427101188648624,0.027120762562596074,-0.16914286548786814,-0.07376765670351647,0.0370802577599106,-0.11296666894281987
10.0,0.1217826626244162,-0.355519236199909,10.332663306626523,0.023412946451279334,-0.06427244766934964,0.13283945234221878,-0.3442012549011439,-0.9063543766939266,-0.45698353915876155,52.350546076962544,4.925567303570323,3.3736319047375534,2.78547344334783,225.80398312199162,3.7900938397827932,2.5313114338808447,1,0,0,0,0,0,0.012463244424532664,0.004594452769255217,0.06568080319663552,-0.08879819990145771,-0.18119066461357544,0.08334773955394019,-0.0581200950775279
10.5,1.5955065063947802,-0.03880729604104771,8.738356953262532,-0.029188741678064,0.019565408537698434,0.027450652995390123,0.276343451922427,-0.49430266324688305,-0.48344523399690753,52.35053716067991,4.925554169725221,3.379797490080446,2.566467668689437,226.01584181160615,3.7900926023028787,2.5392806037141757,1,0,0,0,0,0,-0.004066868526101241,0.03357776090358494,0.05738805809789758,0.11724372255042126,-0.04643567948544089,0.02930449055069755,-0.09267175109423212
11.0,1.1760453497096337,-0.5565317160780722,9.545735148013614,0.03912313774611845,0.023619439612448695,-0.015270739960879187,0.4768089622679321,-0.40605797419241635,-0.6715586088518917,52.350529091504555,4.925541526524477,3.3972363454558483,2.3220719168852844,226.08831942190878,3.790092193318497,2.5488955589719744,1,0,0,0,0,0,-0.0014574764096756789,0.005712953044745939,0.12804149789747613,0.017530336684063383,0.0009537346087551135,-0.06811730575992214,-0.08043032720864643
11.5,0.4831892338157523,-0.9061759777102639,10.08929867109063,-0.010261241465299997,-0.01018031346453449,0.02918249951759981,0.5424838212396539,-0.3776968961169878,-0.7345754841833569,52.35051880075588,4.92552713986458,3.1159275814250167,2.5992404665344697,225.8830972376717,3.7900920581500612,2.5341494742423687,1,0,0,0,0,0,0.010247805372295787,-0.007832794360195003,0.12011569855511832,-0.04745780308079418,-0.04190862660379105,-0.09547305196242696,-0.0703627379464318
12.0,-0.05333889600441666,-1.7594056324282938,11.082404344030277,-0.002757762101882711,0.007796870849758473,-0.018825056537122603,0.357855540102037,-0.31121230816679984,-0.4275110990645302,52.35051026187083,4.9255124897169384,2.753403954152108,3.0300658233894286,225.63931488727107,3.7900920134771914,2.511324726147144,0,1,0,0,0,0,0.027549384482815957,-0.06533150654066289,0.08034951680315976,-0.17902385840031443,-0.028257076060028384,-0.19654136726443408,-0.09706261069605576
12.5,0.1407648505592313,-1.925385366923122,10.549511438238328,-0.023885199877811788,0.0022495267789417912,-0.03228282316619976,0.4336282265566239,-0.4691380438421924,-0.2043939794844277,52.35049981060368,4.925497433870338,2.6362576108901363,2.850144315149414,225.2179388466898,3.7900919987129065,2.5037555313852735,0,1,0,0,0,0,0.023286547694618877,-0.06386809154458029,0.10263218395201819,-0.17943342509242025,-0.021531665725625624,-0.16602524397924284,-0.11683951704143597
13.0,-0.09143624105883788,-1.8502724504663766,10.778271282081894,0.003409539323875315,-0.025231899011979707,0.03961010935711238,-0.4744443617129138,-0.9604629080308265,-0.2875117490495154,52.350488705799535,4.9254825605923065,2.5858176637011385,2.490292167405664,224.77191607119408,3.7900919938333426,2.5012454178407952,0,1,0,0,0,0,0.020523108362937907,-0.051744027136985615,0.13092475834836326,-0.24508243626081908,-0.17474660988640553,-0.0593159371881862,-0.108920832183291
13.5,-0.943637391849643,-2.250935079108642,9.681045419849069,-0.012057906564929242,0.025631191049549067,0.03250381596242358,-0.7719396219594379,-1.1183704601221762,-0.31535571350207164,52.350482399782926,4.925471880146418,2.6108506151130633,1.8763944096572698,225.48502118140703,3.7900919922206575,2.5004130082907183,0,1,0,0,0,0,0.008163019076579011,-0.02673771920158317,0.27507486954752536,-0.2380783820793285,-0.1654966373806412,-0.020630784537594104,-0.06932699263361267
14.0,-0.6813431563821246,-1.364329461542475,9.594555323257962,0.02643224972944859,0.06078573437054968,0.008500448812028716,-0.4665264854449472,-0.7053258993116375,-0.2595397019626533,52.350477733702796,4.925462597738275,2.6564009994435955,1.1876528822296124,226.3590645269928,3.7900919916876687,2.50013696274665,0,0,1,0,0,0,-0.011599018723426504,0.011672923296834385,0.389587047735046,-0.12869489283677188,-0.09591130476476224,-0.0170150840798964,-0.0552767720699515
14.5,-0.6944417946724862,-0.7036300757805175,9.573781774451039,0.006365151312902034,0.0004838008517020001,0.051383466769434435,-0.23035194036845238,0.10482420983614948,-0.06771297022290831,52.35047362805416,4.92545854912821,2.9790144597591754,0.6673178991552441,226.50626360447322,3.790091991511517,2.5000454198968676,0,0,1,0,0,0,-0.020065066459892325,0.048923410493351215,0.4810261577859745,-0.04990266713205117,-0.1503756444449531,0.0011132585773594198,0.013206238647623245
15.0,-0.5371389435178484,-0.3933782164719236,9.721977559932421,-0.0003156482423871416,0.0033381800070556517,0.003061238009982002,0.009069335763090547,0.20326032716318143,0.19590531591740415,52.350472224990796,4.925456245650557,3.3769479777527414,0.19659670966946963,226.5525362992041,3.7900919914532993,2.5000150622492754,0,0,1,0,0,0,-0.032757194862328996,0.05102972091699977,0.5545059034142794,-0.037660506410005526,-0.10209981452951007,0.008019907340920738,0.027256016269476765
15.5,-0.8900711421751243,-0.07546572461109374,9.591106906138231,0.0018460852459963937,-0.002922534816831114,0.003551698925141217,0.08750656178600233,0.2348968419366751,0.2842158929064407,52.350471745508266,4.925455477590068,3.646587178253265,0.057918821451948155,226.58479480247487,3.7900919914340587,2.500004994977287,0,0,1,0,0,0,-0.03700711941678645,0.06494502158959989,0.5989924949935369,-0.013359329091071424,-0.07856590044632508,0.047283614840741464,0.0557085764841885
16.0,-0.5231104187502267,0.01974140285879572,9.730772998163058,0.002425342172894928,-0.02718447609244348,0.00635781830841391,0.13161498543197886,0.23059402793680553,0.28063463341224065,52.35047158165002,4.92545522149168,3.881349355321567,0.017063306318923603,226.61510735705582,3.7900919914277,2.5000016564457037,0,0,1,0,0,0,-0.037826649456533856,0.05723358622886824,0.5817533121519515,-0.016166671039393413,-0.09987313536536847,0.05483688924381519,0.0559512455592386
16.5,-0.2957521435649182,0.09294228728076695,9.775782998517126,0.0017884278411213913,-0.014674014647948696,0.002948686651536449,0.06785806636761685,0.1263694869447048,0.13311582617210538,52.35047152565315,4.92545450041372,4.03452213350316,0.005026974224172941,226.64514970580188,3.790091991425598,2.5000005493142834,0,0,1,0,0,0,-0.03884194096291353,0.0529857879042785,0.5668478235308664,-0.006660010369950137,-0.10308020168085712,0.054812393639244526,0.052797185855666624
17.0,-0.12156786473884623,0.1342227011185696,9.771942346723588,0.007374893736130102,0.005835611574266821,0.01052177240741204,0.034005828965469304,-0.07089750216378149,0.10678277410234528,52.35047401758034,4.925453624295211,4.165514350789809,0.0014809831915443962,226.67516767498097,3.7900919914249034,2.5000001821648494,0,0,1,0,0,0,-0.04083612213933814,0.046708933658537795,0.5548660204694525,-0.00774251754781876,-0.09177220879619546,0.06760767129172965,0.041319655268225654
17.5,0.13780947354204848,0.5303455389769042,9.909857561772,0.0032889245605503574,-0.026713910862829163,0.1107999889776515,0.06457540362126302,-0.2865440698649585,0.15417789740910764,52.35047486917093,4.925452060794982,4.460002530528883,0.0004363084264665945,226.70516911890007,3.790091991424674,2.5000000604099206,0,0,1,0,0,0,-0.043294837758423146,0.05041231092921287,0.5299499793285353,-0.0065085127357040196,-0.1462207994539045,0.1447842679171545,0.04173029209005745
18.0,-0.05647071697442224,0.8741551042199074,9.771199298225591,0.017086916108541683,-0.009834485911394152,-0.041961169217864774,0.07459035582368705,-0.35585100729998465,0.1700549852506505,52.35047264912974,4.925450585940378,4.798937012178399,0.00012853963778430166,226.73516826819463,3.790091991424598,2.500000020033275,0,0,1,0,0,0,-0.047635059464701326,0.053919501402713996,0.5471813191626378,0.03526051567553517,-0.04260246057704021,0.14957529674359113,0.05574818471414204
18.5,0.6336636494576287,1.0484987807912085,10.243000432395585,0.0012379253122068758,-0.04856716124989757,0.21363007748718274,-0.629762644886378,0.19482799244587368,-0.10521567111286895,52.350471890453406,4.92544882280047,4.853076367380932,0.14464337551099338,226.76516709886775,3.790091991424573,2.50000000664348,0,0,1,0,0,0,-0.036086791892960456,0.06259478743178074,0.44907831383862923,0.057534116147994446,-0.31901345417537974,0.16422188618543987,0.08563098006038398
19.0,0.5901468542488879,0.7707638510528473,10.612281999851012,-0.011286592678767502,0.03096940997774507,-0.03676691245721661,-0.2992648386639622,0.3273849754349536,0.17293185358379792,52.35047163118354,4.9254469635361,4.829793694136939,0.3318240047014991,226.7951658852985,3.7900919914245645,2.500000002203126,1,0,0,0,0,0,-0.038038090754251255,0.03090373302680232,0.4474617744270453,0.0515346184132237,-0.11165027312473452,0.03128970770632282,0.05643170372685702
19.5,0.3539258765741967,0.479573236226211,10.143836841331009,0.0230559258377071,0.021151088049021827,-0.17549796020133454,-1.028928546126147,0.39480204242016875,0.14473437164432737,52.35046652045361,4.92544157594884,4.804056712053262,0.9089593804801026,225.93818696465826,3.790091991424562,2.500000000730606,1,0,0,0,0,0,-0.021209661250116515,0.023850914710550404,0.35427821176842056,0.06171323599763731,-0.12473117591064166,0.024410267147155003,0.06726713243925463
20.0,-0.11033748721974013,0.6552641597083411,9.684451393697964,0.020563678614884368,-0.007853486498169866,-0.16026988267172543,-1.2679749586575142,0.41646930331565374,0.13528838086663453,52.350462262850456,4.9254353297374704,4.777652869240705,1.6009782836222688,224.95804623965032,3.790091991424561,2.5000000002422853,1,0,0,0,0,0,-0.005411325686847393,0.03813226806051293,0.2638025079201685,0.10358957604418825,-0.14577880692503098,0.07797961902194381,0.08503745371445527
20.5,0.18785886958910086,0.023075991457663036,10.445012436085799,0.011228470780099083,-0.07927222124181205,0.18956691134752218,-1.0466657795852994,0.04271994660628514,0.17966317207470744,52.35045829679464,4.925426572330498,4.55096194081541,1.706097117811097,224.77888838136852,3.7900919914245605,2.5000000000803473,1,0,0,0,0,0,0.0044240327154691835,0.005820670825402892,0.21249862386605778,-0.054942242893075977,-0.3391702012957368,0.12375625451670721,0.05035454464492871
21.0,-0.08636122716020367,0.6819869289174145,9.133681192685847,0.062223554425933164,0.05948412783920365,-0.052298491598751246,-0.26727570739120166,-0.45019271551138484,0.02673524734089544,52.35045191930859,4.925416977602565,4.269822288086306,1.6383109203694635,224.710951463982,3.7900919914245605,2.500000000026645,1,0,0,0,0,0,-0.012516525891626325,0.039939985601960507,0.29239186814257695,0.10284677286869892,0.02365915518192374,0.12318629971042878,-0.0005813686085866833
21.5,-0.07514060240549572,0.1563508822569537,9.576391751770199,-0.07188367920911906,-0.11560770987719765,0.31122311982610806,-1.3456384463002236,-1.0025191658241348,0.23834288554860264,52.350444717740956,4.925406785839492,4.133562050309921,1.8087966348225801,222.72088325093057,3.7900919914245605,2.500000000008836,1,0,0,0,0,0,0.0026025346257478824,0.04311124066233151,0.1847195745730268,-0.07040722821499105,-0.4312196188955596,0.31832773374546053,0.015188379035870291
22.0,-0.0018794557757043362,0.6043208335268214,8.829820977735816,0.008118485993676872,-0.02303982264838307,0.18346818423731379,-2.0395085702990587,-1.23919062645123,0.19344708156966617,52.35043723455188,4.925396395003897,4.036687869482344,2.0494790726946244,220.46392952112618,3.7900919914245605,2.50000000000293,1,0,0,0,0,0,0.007486634627543393,0.06289516343797269,0.13641274546931614,0.026324590115227503,-0.3477369741274812,0.35843608505668123,-0.00922726273220452
22.5,1.1127458076465844,0.5911714346378191,9.785212364305137,-0.03240018554165509,0.013912899401000538,0.13879656056503556,-2.04171043337087,-0.8109960186871221,-0.04589762715659507,52.35042965512157,4.925386255633395,3.908743202528492,2.2156138812958117,218.38519021284228,3.7900919914245605,2.5000000000009717,1,0,0,0,0,0,0.01655579046833229,0.03950182651009597,0.04687374474455021,0.046782604999837135,-0.3700004809209099,0.22153243882276116,-0.04151069431201324
23.0,0.35518975898137317,0.20471978668099156,10.092029112729504,-0.011148604839697016,0.1283532308540191,-0.0070073368368098465,-0.3581473484216118,-0.4212911332903819,0.13222967046886422,52.35041953173825,4.925376200110201,3.772352145886985,2.359786415774182,216.33119697150437,3.7900919914245605,2.5000000000003224,1,0,0,0,0,0,0.02190469773684143,0.007586421128057526,0.14714391467993748,0.05024877835641001,0.007850421587804881,0.017767778444746214,-0.06246825596285193
23.5,-0.28820793376589504,-0.37584519225307533,10.543882105229361,0.012520380989873105,0.05778603751742678,-0.2484347091171922,0.26452593747405306,-0.48294930710934847,0.5131421793234437,52.35041105004859,4.925367761759019,3.694173588857693,2.349356205880481,212.98892323034164,3.7900919914245605,2.500000000000107,1,0,0,0,0,0,0.032664393365295946,-0.024982370816037006,0.21082867650099213,-0.06695355569534653,0.16429916431508576,-0.05248792202398903,-0.0681906305279194
24.0,-0.03317523582518006,0.12282613097960143,9.981879187933105,-0.008317628472342149,-0.06624272766670286,0.05314439138866725,0.1962395713036817,-0.7534207939395945,1.108766555460388,52.350400618327384,4.92535986262988,3.6318203701996974,2.2933789023333717,209.4677645525844,3.7900919914245605,2.5000000000000355,1,0,0,0,0,0,0.03818152223392262,0.013905527646900236,0.18292161114100702,-0.07796382885233052,-0.03952014906580861,0.1761381436341491,-0.07174789826469302
24.5,-0.16972478536339206,0.883928843097344,8.892928912022185,0.007589607142826214,0.031018089002538968,-0.05982179156272642,0.29928939998463416,-0.6207378870831004,1.073881328533035,52.350392031266416,4.925352143296341,3.5247040923335176,2.414439115066212,208.03158104301878,3.7900919914245605,2.500000000000012,1,0,0,0,0,0,0.0345865024608361,0.058880514384644575,0.1961418837393053,0.09925397273794828,0.1257890898895306,0.19243714073207033,-0.07437672850329377
25.0,-0.04670941482522492,1.3939931698027874,8.640402103257644,0.030132496370298065,0.0908424610336031,-0.23700979355146345,0.6244663086432879,-0.5343703574328084,0.4306742605827979,52.35038156353564,4.9253448017558545,3.4054187288224886,2.587656036710097,206.88489483064959,3.7900919914245605,2.500000000000004,1,0,0,0,0,0,0.03715175866936791,0.07624038396422644,0.1876321293918758,0.2246003681620207,0.28737591045168526,0.11728858365151558,-0.08255838517256583
25.5,-0.05899211226926953,1.2156411448866977,8.779074299780397,0.019310610672822894,-0.09674275517987205,-0.05939247978775705,-0.011423150420536987,-0.4033914530744432,0.29984002879499455,52.35037045310522,4.9253340899132505,3.5338103440779434,2.9702216020923413,209.868856066374,3.7900919914245605,2.5000000000000013,1,0,0,0,0,0,0.04845996317626813,0.0765020420366188,0.08382507085104975,0.1554760944904585,-0.013579096901975939,0.21868669477636585,-0.033109113342116366
26.0,-0.07400008393491321,0.5312629278197006,9.59968301666809,0.01596905898046326,-0.046796037206061625,-0.0013583939367261683,0.14400285493972828,-0.2667383648163014,0.6468507080148915,52.35035661197523,4.925321936450475,3.729533531247699,3.414462633329991,213.4263676111453,3.7900919914245605,2.5000000000000004,1,0,0,0,0,0,0.05007702928657079,0.01733895276499458,0.017502543726733523,0.061007681879008104,0.014343065204708247,0.1240382541297155,-0.05181067431139058
26.5,0.6879678897134668,0.40706769081128646,9.991559878702802,0.008386812277225599,0.05288007367732385,-0.05899018275657259,0.1949222423444773,-0.22281924688564103,0.7630972467203125,52.350344348720185,4.925307395243572,3.7441896386441402,3.4289495019501306,217.27880592188632,3.7900919914245605,2.5,1,0,0,0,0,0,0.03504922848620685,-0.012838583154427784,-0.020420677944263672,0.07126061440874219,0.09127258059518212,0.03288572144137647,-0.0995661065435441
27.0,-0.06813731645372001,0.35525078323269227,9.951902316384778,-0.015415519178338282,-0.029632178871876122,-0.08106013575997242,-0.023660178384128566,-0.2665646277028717,0.349208733971602,52.35033262468774,4.9252917400359,3.7096225330796346,3.3168276666162564,221.17220959992937,3.7900919914245605,2.5,1,0,0,0,0,0,0.02814350533945259,0.005192467592874256,0.02525733829824163,0.049199238512642934,0.01035929926478183,0.06387715739975185,-0.047448635374044826
27.5,-0.06883459200163808,0.08600610847228046,9.791311555879728,0.004840214604961772,-0.04412524677363745,-0.05640707459278831,0.09684226683648682,-0.2369626082712186,0.12074999930149796,52.35032108492909,4.925275395538305,3.6740764652097067,3.149771100342456,224.4684899421308,3.7900919914245605,2.5,1,0,0,0,0,0,0.020635312815702217,-1.1011885401875088e-05,0.05637283634497408,0.03431355593939961,-0.006150326454349379,0.043952515479083194,-0.04068269185677613
28.0,0.23760148216504176,-0.03322860057548957,10.03352543661929,-0.0025924596099092994,-0.03993417256930507,0.08518826958499351,-0.7789933418086846,0.1703292268975836,-0.8172081922199073,52.35031211920768,4.925258503364326,3.6382642648100396,2.966530530710793,227.68185637692955,3.7900919914245605,2.5,1,0,0,0,0,0,0.020964217623076122,0.012009997440555968,0.03318880244810967,0.06528721240477776,-0.24025151554054805,-0.0014625533080543395,0.00713719772965379
28.5,0.18136589906474124,0.2561891170136532,10.160608531110851,0.017610443017465643,0.07436604074486136,-0.15468696009158567,-1.0659273883738347,0.3012292919380673,-1.1314186754819104,52.35030152207357,4.925240157204277,3.477939260978331,3.1312182288487933,228.51556259924448,3.7900919914245605,2.5,1,0,0,0,0,0,0.017166881572270185,0.015716817240414384,0.019047142234899513,0.15195008001793667,-0.08774487968480946,-0.1036588813710816,-0.005461134400579923
29.0,-0.16522378041859107,0.10288136071940182,10.12014253724055,0.010418798481957415,-0.06825291865247798,0.038467031959595555,-1.183020826295801,0.07501027859914025,-0.8396778690645053,52.350292878484446,4.9252213262341185,3.283765244596659,3.3984081268095516,229.01885286148578,3.7900919914245605,2.5,1,0,0,0,0,0,0.0255314323609051,0.022354896153962633,-0.026171675720823483,0.06311035576144151,-0.2651791401041148,0.028230020747144327,0.002927871196956585
29.5,-0.03895686180203656,0.32008196140766887,9.634291447612505,0.0041899171437959,0.03627289372517156,-0.018450843817761256,-0.3514629433004838,-0.17232728832664188,-0.23753415345537343,52.35028239143575,4.925202015768339,3.256736181076121,3.438327568478929,229.21790392991065,3.7900919914245605,2.5,1,0,0,0,0,0,0.011665313668336683,0.018344501704190254,0.00029460727684226494,0.1126671314188829,-0.02642091112382784,0.025710941844546475,-0.05525925639207428
30.0,-0.0637381855154692,0.14548697425068685,9.667936036855686,-0.0005191749602254893,0.02353022072279115,-0.04476465194025159,0.6552174869601454,0.029914851539422638,-0.38720067175563017,52.350271274403624,4.925182545421851,3.2751457507813404,3.4112916478841617,229.3747096884804,3.7900919914245605,2.5,1,0,0,0,0,0,0.01205796616062389,0.005804796760573001,0.043713369657190033,0.1163712823532513,0.09068181461549173,-0.0544483481858507,-0.05608693542135261
30.5,0.478904759422339,0.15367411778335788,10.356955579112286,0.025760387290449775,0.10070098661358483,-0.10922916494184953,1.0792339378116522,0.07016323354833848,-0.5193169606194108,52.35026245314467,4.925162703922636,3.3146195153938294,3.3821647392515137,229.26731663618256,3.7900919914245605,2.5,1,0,0,0,0,0,0.0095702772360198,-0.023256248178494227,0.03751751940884281,0.11747271049623462,0.2111491294592256,-0.16342617825069014,-0.09484707229049119
31.0,0.1100334411829193,0.4827983270284787,9.587738976259885,0.012669928181309709,0.1287496254665649,-0.2165649796644747,1.2181467141958175,0.08309871461575977,-0.5635751411501829,52.35025190537913,4.925143056510918,3.35981961639999,3.3524219785039313,229.12323810464565,3.7900919914245605,2.5,0,0,0,1,0,0,0.0042213989655130735,0.004348362685650309,0.07810577899986403,0.20522776927903932,0.31444949745556,-0.14515193597531872,-0.07797858185178223
31.5,-0.7907806041412795,0.430982354283957,9.434495193242043,0.040296803583230074,0.1282386592536272,-0.38325839235724757,1.4636194645416365,-0.031330662449734176,0.09236427954072313,52.3502432786612,4.9251212489146825,3.342246740717584,3.431833635007292,233.49506065217483,3.7900919914245605,2.5,0,0,0,1,0,0,-0.011181824676286107,-0.002085261511881077,0.13364511347649913,0.17088304117221953,0.4763583515867976,-0.12958888700831836,-0.07907473746557742
32.0,-1.1563673146425302,-0.5328472795823311,10.43358052018654,0.11853534113089442,0.12756173747999658,-0.46439033947242453,1.7372840902289897,-0.14415067019422734,0.33929327765152206,52.35023530844162,4.925099038879805,3.3076089269953766,3.5434029772322404,238.49395440534477,3.7900919914245605,2.5,0,0,0,1,0,0,-0.015346338353208987,-0.07167391524881321,0.14735337584930253,-0.0005571217473138365,0.5640096343310247,-0.23998152709798812,-0.1060975083181001
32.5,-1.6467551791317319,-1.8459044998488294,11.863384786964806,0.16681024819315693,0.03622067363916212,-0.5154319309935191,1.7412988726336769,-0.27680735328261796,0.522564047827085,52.35023258470073,4.92507383407186,3.4455508580393306,3.6715001282018984,249.56487158258201,3.7900919914245605,2.5,0,0,0,1,0,0,-0.02941540371411652,-0.15944488522497724,0.1418307984894803,-0.25435276675606006,0.5205033530912818,-0.3364566499905456,-0.10555897515306949
33.0,-1.5354060298444752,-1.257100735531977,11.313692187120843,0.19302223216087627,0.012348312335380845,-0.35903772548080204,1.7397640137744244,-0.21568401229458364,0.1761129790766197,52.35022914282663,4.925047312858341,3.6304088795209037,3.8044664919131437,261.47890995689505,3.7900919914245605,2.5,0,0,0,1,0,0,-0.058471535262405686,-0.13636027417792138,0.10959673616479923,-0.1625158271477812,0.4480805235932367,-0.2558298974087713,-0.08173149183160913
33.5,-1.8942821924977604,-1.3577813617947854,10.681401417657026,0.1359535830931518,-0.02520567608850564,-0.12969226185494698,0.49256881195207836,0.024812469503960488,0.1558481405935976,52.350230477664965,4.925020988394638,3.739453865688746,3.5791170795188623,272.4336161700368,3.7900919914245605,2.5,0,0,0,1,0,0,-0.08557016421939913,-0.10371429655857198,0.11176291460941787,-0.14940551087845458,0.1400923915616708,-0.13844193888607956,-0.009784093838393005
34.0,-0.3544319529478628,0.2846339024555613,10.084045775040419,0.04133397503048365,-0.06744673822201736,0.05046520696247275,-0.6761569666077816,-1.2420835757702589,0.7502120962443467,52.35023344489584,4.92499504737712,3.8278889522073056,3.2482052317483032,283.2550874790461,3.7900919914245605,2.5,1,0,0,0,0,0,-0.14574470898842543,-0.043761868701631755,0.004426805006382301,-0.06529355323873637,-0.10547635372875654,0.23101286805351678,-0.08132007745242167
34.5,-1.477659310256039,-0.9597660191219672,10.36269831468118,0.04077964564064125,-0.04567491854007341,-0.061219386835310016,-0.09827708566112092,-1.0801226213895447,1.043013446359057,52.350241992107264,4.924972094799914,3.5254558771301507,3.1965667604072823,293.28303365652454,3.7900919914245605,2.5,1,0,0,0,0,0,-0.16789216899452633,-0.09025598260854051,0.105078914299985,-0.19718192396268894,0.03447946296259936,0.08917989334693399,-0.07823248077323797
35.0,-0.6983953097030021,0.07272199806509283,9.947893285237408,0.021229542702580016,-0.10597833274478627,0.04302210629162605,-0.3425247541475783,-0.9724028595474169,0.654085786615973,52.35024993515631,4.924950138673846,3.1167644691066374,3.2272042582465175,303.20079444125713,3.7900919914245605,2.5,1,0,0,0,0,0,-0.19825205728166093,-0.03617843953874968,0.04017419329896554,-0.05957448682458638,-0.10743164034129553,0.18791856204666868,-0.08647229227321727
35.5,0.04517963498172639,-1.1132382411219166,11.681408401464473,-0.003109955203429847,-0.03158765809045605,0.11023506296344979,-0.7158328562152647,-1.1755688590974738,1.0964332428260242,52.350260182802614,4.924930739699761,2.8748932273939154,3.144529153465038,307.6780560382175,3.7900919914245605,2.5564484875251305,1,0,0,0,0,0,-0.21709848753785863,-0.09176330354634027,-0.020745354671873738,-0.28155229767368006,-0.18036723900442325,0.056353218769082676,-0.15083180315229813
36.0,0.7498535104118055,-1.0328013658996298,11.591429391706278,0.010515703370710443,0.04742803735194137,0.036609211922417076,-0.8381329811297256,-1.2408646501218512,1.2446170416796065,52.350273729084975,4.924912193370111,2.678372325143454,3.0284714994685,311.39987396248443,3.7900919914245605,2.6316165505876628,1,0,0,0,0,0,-0.2464080092172226,-0.060337183650615106,-0.0484519085723403,-0.2600320276178903,-0.11153758479793882,0.021496783007661495,-0.18451537336139187
36.5,-0.15292885999302153,-0.8156521547008935,11.51561766521005,-0.03183813479740117,-0.04157988206660751,0.11742500000932465,-0.8328656379125337,-0.8240897722801417,0.31201743056869236,52.350285891578864,4.924893931342113,2.3736306953062822,3.1424125685409408,314.1125769085315,3.7900919914245605,2.708946770827839,1,0,0,0,0,0,-0.2526736110416421,0.023494839247713943,-0.031720151534907315,-0.22036958029024747,-0.22756256540134903,0.013745323878064392,-0.0885835242187374
37.0,0.22108548946252304,-0.7045529683085155,11.076294173773647,-0.0016961769482425962,0.11574275585447968,-0.07872386025650738,-0.18833253988386234,-0.45498489742745374,-0.053626095516531025,52.350300092240765,4.924876081953162,2.039469080814697,3.3241129353046035,316.68518488857217,3.7900919914245605,2.78699401053807,1,0,0,0,0,0,-0.27322698819826874,0.060599825672909814,-0.04157538698642269,-0.09442541011733477,0.04791324897372427,-0.16010939870552546,-0.11334567582285916
37.5,0.19566298578631391,-0.23056763089709864,10.229756196723052,0.016365188637630236,0.0053361806170135195,-0.10592014791830955,-0.15842233108583237,0.06861523426982752,-0.5985358189539618,52.350312478362156,4.924857098781091,1.9135012009832142,3.4234935848543984,316.7410000600803,3.8670539445174206,2.9077007294056734,1,0,0,0,0,0,-0.28519578139121826,0.18109698880038988,-0.06789097011855796,-0.005224095931696267,-0.011116834679107533,-0.13612646419140248,-0.02708635492945856
38.0,0.7921199998169659,-0.7719468509920866,10.7634127175268,-0.0007893641792280082,-0.02527873438766324,-0.05574445311654085,-0.045422827217462936,0.918588866596677,-1.102532882549632,52.350326755446474,4.92483773756584,1.844131133931521,3.498622414788718,316.4473445052699,3.9694516533169706,3.0425541222092884,1,0,0,0,0,0,-0.29283003810141073,0.24362185910190326,-0.12894460532189794,-0.04200627816145913,-0.10412546609470566,-0.2994201137580951,0.03560002845307525
38.5,-0.06214981784905149,-0.01946660715492954,10.828141326493826,0.017866447483340563,0.00589719267834609,0.07419410482185626,-0.721642848444685,0.06265808240179771,-1.321972549780527,52.35033916768444,4.924817932454818,1.5507546114781965,3.418473983586072,315.3732112573258,3.9263319170764754,3.0638131884125634,1,0,0,0,0,0,-0.2989319976208117,0.2933813406055865,-0.10386197665676845,-0.04212202645938463,-0.16626088715703724,-0.1290734340702434,0.03271186869829265
39.0,0.5951941432493845,1.1328602028619268,8.96666911318688,-0.015014409182534848,-0.02240085718214155,0.02554791905934005,-0.723560316817553,0.6790091135370548,-2.2053349321815636,52.35035094263027,4.92479797933333,1.1964815618311775,3.2925797411821094,314.19067804622597,3.8351189862852353,3.0474016868837572,1,0,0,0,0,0,-0.29563069818160537,0.36843037251448596,-0.1020833738088023,0.26412948616964516,-0.20635705645284602,-0.08100427829378626,0.06123548003531884
39.5,0.9300447338813876,0.743500528515725,9.013633216076526,0.009274664890591883,-0.006931235814168501,0.029360215490003918,-0.8270703931188486,-0.0302720564795691,-1.7817663058956017,52.35036249978805,4.924777659017071,1.1529947088120762,3.2801791869648476,313.98343000182876,3.8049733138891897,3.0531613523603798,1,0,0,0,0,0,-0.2995888016870312,0.33567299422792085,-0.128429331483837,0.16785707579110193,-0.18663546655965413,-0.029962692948141613,-0.0020387001544834443
40.0,0.3250319491057394,0.914495829478897,9.260973991488227,-0.0005549825667471361,0.0432452025515459,-0.06761208323666884,-0.14143490494171207,-0.44578017296778494,-0.5488187433512042,52.35037398251898,4.924757216265157,1.1939955130626076,3.3012145310882812,313.91157946532303,3.7950102356685194,3.066273311200968,1,0,0,0,0,0,-0.31571135251117094,0.32547311001205725,-0.07285012388569619,0.10633338557268845,0.047008967877497844,0.015296543454281166,-0.04766036689053767
40.5,-0.1418203851927431,2.0289306419163053,7.540855006787295,-0.014424254284082264,-0.00403910060195091,0.0014487078725015784,0.20234369164648736,-0.9954125358178066,0.5747804336746796,52.35038543981531,4.924737368374636,1.1620574542766227,3.250980332595046,314.37524781614434,3.837631543559888,3.126070231354868,1,0,0,0,0,0,-0.34683325348456956,0.43229798941508457,-0.03635490348887229,0.19158701065632278,0.12934349307537,0.2992409654994518,-0.046744674682127965
41.0,-0.4160363635556264,2.0951717264492253,7.295862526852041,0.051455633992184995,-0.012527622642998996,-0.02337082183345391,0.3270793090094053,-1.3653665510348658,1.3975633137764738,52.350396888419624,4.924717718831832,1.1102908443517134,3.17974960816444,314.913249672869,3.8976320346734,3.2013487649727703,1,0,0,0,0,0,-0.36830893088372724,0.47556862652959836,-0.013602577227380355,0.12097266806345183,0.22224836088497982,0.3851124964526434,-0.059115148474079726
41.5,-1.364676978696234,0.8977994608155759,8.41040225023036,2.2209998322197944e-05,0.0295666376617348,-0.1170017970672868,0.0371583383098148,-1.4129936305735291,1.39447866529514,52.35040582298997,4.924700042482377,0.975159358262016,3.116440827196851,316.5810766651345,3.99123014581865,3.2612981043521847,1,0,0,0,0,0,-0.37869742725888,0.4717201636854507,0.02820239035140283,-0.06680279916173955,0.2358954770525032,0.24196154217233423,-0.02602444181388955
42.0,-0.5837745270025675,-0.41739643032865903,10.206960417726872,-0.023012083920442628,-0.012520269948073356,-0.026989600697962204,-0.19613599394336056,-0.709891785674639,0.36580257616804457,52.35041640947852,4.924682706222131,0.8173649920367176,3.0554660766061863,318.4057861824104,4.095932036640848,3.316163782196457,1,0,0,0,0,0,-0.3729221845510695,0.449568466654193,-0.035381288261970234,-0.22590970683453754,0.01456879277244865,-0.0159331684100728,0.012196874974451738
42.5,-1.3080137886693295,0.1699234252024192,9.481077646043431,-0.017303890479385783,0.01269782404010945,-0.03432234572143005,-0.4672298894048521,-1.139731882792932,0.08820679549019095,52.350427560493195,4.92466611904534,0.6772095465824621,2.998705824509342,319.4772287121377,4.209348707644603,3.406112551504593,1,0,0,0,0,0,-0.3990011951818006,0.5603220414904075,-0.006297222430688101,-0.17639142563629864,0.052839525616632674,0.08338883536789789,0.05589817163034422
43.0,-1.3111087528385348,-1.214304957365167,10.92630870980354,-0.010255117083172189,-0.012255432660560082,-0.023713680781241305,-0.886852669307083,-1.6012048344530272,0.24095079782004625,52.350436393365335,4.9246500994822,0.5418492927557426,2.943187362519608,320.44410219711193,4.32564559427215,3.5076954958679494,1,0,0,0,0,0,-0.4116992195361451,0.5525897679921474,-0.04264999219648606,-0.4632318924473714,-0.037669785492292565,-0.0019361434096281348,0.0489677649467849
43.5,-0.6284992822348058,-0.49741656189115624,10.41652062906507,0.0012703053692079986,-0.09136708271288946,0.11274458894794406,-1.0243260274119417,-1.7495182406417245,0.29211914116548743,52.35044694509956,4.9246323621241785,0.6795138820493248,3.085544514800394,319.63109385859065,4.392877863571486,3.5663336224613578,1,0,0,0,0,0,-0.4205487294629181,0.6214692150470098,-0.12809993354754795,-0.41489841952049916,-0.1504607315998739,0.13935477291118398,0.06134616883007976
44.0,-0.04812411242239234,-0.8340631737607531,10.42544356812666,-0.017826659110291236,0.011929727993743186,0.040600583402995175,-0.5450837226172818,-0.6822565207224485,0.15142362157712702,52.3504580842373,4.924614051992909,0.8914007504056883,3.286197263136156,318.57093899632315,4.443894704331848,3.6107301317731664,1,0,0,0,0,0,-0.4182880481994474,0.6272212651316643,-0.1625852541031591,-0.3326942939438726,-0.0349995348495087,-0.07888091755954893,0.08916988519064856
44.5,-0.47788415139969664,-0.4911182847696755,10.119269780702696,0.03929964462143757,0.0342255984965336,0.006060889608990407,-0.2698366783819753,-0.12530818498958507,-0.07242083035420752,52.35046942411417,4.924593643821644,1.0505566883130124,3.373526873257867,317.0889672392738,4.3927587013514175,3.639780013248384,1,0,0,0,0,0,-0.41143183094749003,0.6511578615906,-0.13136941916407507,-0.2449730276841674,0.05290185410602427,-0.12356936615005248,0.13582705176189824
45.0,-0.5334350221176061,-0.34063675678181593,9.61186775648787,0.014581971260397595,-0.038111344291119134,0.05272358098387627,-0.16596232451295054,0.8433901839175881,-0.767901399226193,52.350480832591586,4.924572536090032,1.1953776351403635,3.427470493944586,315.5483975724109,4.307861408880329,3.663740611172762,1,0,0,0,0,0,-0.39545007941605537,0.6821835838662931,-0.13071597413664396,-0.13159758302260588,-0.051137838697338636,-0.1771339682862003,0.2218519427567123
45.5,-0.6156468641817616,-0.46687916491224357,9.857862269137977,0.013239455921976612,0.043617016690301574,-0.028090064840950148,-0.13193186446339275,1.1547214421099015,-1.0008833035583462,52.350489753448976,4.924551512943264,1.388432556028888,3.4186738713647182,315.3344808770844,4.302603413885293,3.708014812977375,1,0,0,0,0,0,-0.3997996850946937,0.6900316762049277,-0.11961839180202907,-0.11052233615166149,0.03352919219135975,-0.28696473948760803,0.2468301832167293
46.0,-1.0786876746472034,0.08950808646413255,9.060299207916362,-0.03806223352697477,0.024439844656737517,-0.07159895748568723,-0.07272346540406613,0.5444626124792594,-0.43106948770800657,52.35050033525126,4.924530518000058,1.5946000497315684,3.3913936846889223,315.30477735018536,4.323666350252468,3.759025458200488,1,0,0,0,0,0,-0.4217005331790394,0.7498037643839576,-0.09963963430706688,-0.09158006937916174,0.10382826003273223,-0.12486315627379715,0.2565588107383001
46.5,-0.7109111757732272,0.4142345711119459,8.547740612810248,-0.014450203774921691,-0.020280158789504493,-0.022209796478847507,0.25697112296564784,0.05652085233867482,-0.08991542996730983,52.35051399572801,4.924510168146659,1.4227275079101709,3.4503689037713148,316.9798949798421,4.317394640716553,3.815189576644419,1,0,0,0,0,0,-0.44011791626533037,0.7871977839806978,-0.13142409420391188,-0.09777971278176922,0.1312790021937578,-0.012356689065203826,0.22075378107015994
47.0,-0.3080765758706849,0.11867772126815551,9.421965548094306,0.028549154058331493,0.00831252351002015,0.04884050167987675,-1.1167322255264214,-1.02271047441444,-0.3385714859244653,52.35052619724666,4.9244900333888975,1.1480841541390852,3.534755761314789,318.8917365407675,4.302088571770781,3.873062701573141,1,0,0,0,0,0,-0.45070519293138467,0.784859126571245,-0.23956869937875663,-0.24578009497667946,-0.03946935182297137,0.06277973999709192,0.16819496191726127
47.5,-0.1870169275059324,-0.3889849258875388,10.05279150886426,0.02222667212229728,0.001241380175961291,-0.0016943325131608192,-1.5667735993553011,-1.3695660670564096,-0.4218698037115204,52.35053790018132,4.924470606037336,0.8376146824113131,3.538454982208439,320.23363693488034,4.349648306754102,3.8936575089461276,1,0,0,0,0,0,-0.456597906706797,0.7775850668857205,-0.27234513114273273,-0.35236899229938545,-0.09457459558903065,0.031079480923684302,0.14408893781875595
48.0,-0.2834542171255966,0.22663029474385982,9.467657223875293,-0.039991545685506544,-0.005924731489781022,-0.010743999139649348,-0.886509414207529,-1.2987267490079593,-0.21617497283987216,52.35055194379357,4.92445141455989,0.5174058643759853,3.518383038119938,321.49639781744906,4.41798473200034,3.9018899960517874,1,0,0,0,0,0,-0.473890913690733,0.8346399428854641,-0.23981859374246456,-0.2599922781932668,-0.0032676335587796673,0.07244905623908585,0.1403333896697337
48.5,0.23748247468490036,0.8865383547245707,8.424966694618183,0.016987001237559272,0.005921510887508809,-0.03635142716436824,-0.2102080001934954,-0.34881050670512637,-0.20714700255935112,52.35056427624485,4.924433255259793,0.4616268936064605,3.424295607032488,321.06892760707944,4.491981067000617,3.9060228624553206,1,0,0,0,0,0,-0.47808082888839254,0.8880983795034565,-0.20995688994786887,-0.0753157430210101,0.10070772281159104,0.02876144863261984,0.16479570167951918
49.0,-0.1860336784040506,1.0247768502767927,7.960234590035613,0.0044899242331383985,-0.032929105002527055,0.11845817781642762,-0.7661132983405748,-0.6630264546537334,0.3002960894044123,52.350576023924404,4.924415122281065,0.4777336162915057,3.3084026748083284,320.4067593771935,4.567847670444399,3.9087962033379267,1,0,0,0,0,0,-0.48346786903340516,0.9275049478739494,-0.19772576743842488,-0.11138931497606513,-0.029214396107219154,0.18985321709879546,0.18501502541391074
49.5,-0.37060883881752527,0.4650579289358229,9.314928935330592,-0.03507945142579852,0.05437785474868546,-0.03908977060813015,-1.0449127932200397,-1.0796973277507882,0.9349357087160458,52.3505875717642,4.9243960445501855,0.26445852302407885,3.3835956253003756,318.37723867930066,4.510434953139516,3.9111186952819725,1,0,0,0,0,0,-0.48172762072040914,0.8691953000164192,-0.20993002235841718,-0.2543913368061821,0.06683266750681985,0.10899947735501911,0.12084843266017481
50.0,-1.4191107493731383,0.8749277167269085,8.590508270422632,0.04855260114240047,-0.044043028496095794,-0.02104882667208731,-1.0971190726991658,-1.1137833217556867,0.8995159575778615,52.350599051310816,4.924376651805701,-0.011174403561622637,3.5150838675174736,316.1578534607735,4.408974033606438,3.913291675677856,1,0,0,0,0,0,-0.4659398791500525,0.8989877620031832,-0.1682309179031702,-0.22407384833205027,0.050044499834057135,0.23169470518130203,0.15292294531333506
50.5,-1.0433704052345933,0.732162525447565,8.319711696283251,-0.0067689221816361125,-0.013160774659089765,0.04408065463275891,-0.37397152473825845,-0.3984532914529614,0.490509571203472,52.35061050751894,4.924357154024597,-0.32300401029809644,3.35983836290502,315.11772770541944,4.412717894249949,3.9154149153611666,1,0,0,0,0,0,-0.4631862256902243,0.915508043660515,-0.13197939090110422,-0.1389170440907908,0.07000741233498718,0.10946725544855546,0.16348394508087297
51.0,-0.7018768467854128,0.585351705307131,8.37245470555353,0.01028026894281334,-0.00551251569587982,-0.02748600277128485,-0.48519629911803513,0.37652655598119145,-0.5103169362418201,52.35062195575136,4.92433762122059,-0.6446737284160922,3.120118841518964,314.2413224272915,4.451231702643085,3.9175218192701613,1,0,0,0,0,0,-0.4552907938575682,0.9374187416183424,-0.1053326521539987,-0.06255676278238367,0.022956964728620383,-0.0473635262152126,0.20226578548341412
51.5,0.2826587843069097,0.5815966029447182,8.586133304742015,-0.007396941353614114,-0.008293714689156122,0.023263101835466607,-0.7394455900880819,0.9516999888520149,-1.0464313941858512,52.35063340125817,4.924317758895841,-0.9754167627845618,3.282275270420501,314.8516066763016,4.617102510131561,3.9196233058726047,1,0,0,0,0,0,-0.45392495394250676,0.9693439536555701,-0.19645419938895323,-0.007877189714170452,-0.09764991046947022,-0.14075897748744967,0.20779200998807795
52.0,0.7061160538205795,0.028921560948359848,9.70251162020759,0.020382380392673746,0.02411502275521616,0.0022902455981849076,-0.8227406481723339,1.1365557440407852,-1.2260265876998648,52.35064735689709,4.924297786697283,-1.3086263932553326,3.562827447211499,315.66829978251957,4.825064205607405,3.9217229959755557,1,0,0,0,0,0,-0.45214427963930093,0.9595703523853959,-0.26976009139333035,-0.09540833404194876,-0.10371191920254108,-0.28632559163859944,0.18456810549482477
52.5,0.2791672418168969,-0.018002548332066493,9.8311590253715,0.00652296087461509,-0.007480789712698638,0.019695891359012088,-0.5378130146434883,0.4444661471231518,-0.5775817541866866,52.35065965928439,4.924277460020058,-1.0342645405336555,3.596102548639432,316.1261809696895,4.8800222828198425,3.923822090319268,1,0,0,0,0,0,-0.46202183720280365,0.951713276199846,-0.25435735647727764,-0.19546589186325591,-0.047365333098535925,-0.184886451132465,0.1674533918203655
53.0,0.5674361240770633,-0.6181734978174891,11.200398180698155,0.011135581505772872,0.035507405199833524,-0.02532965189933779,-0.19828195617233274,0.15505478643236392,-0.19197480270848033,52.35067139668988,4.924257015147173,-0.5947334137395154,3.556528192221365,316.53421283952315,4.884412682503392,3.9259209870959495,1,0,0,0,0,0,-0.46513180390963677,0.8790614076854314,-0.2612102793036932,-0.3476092749387309,0.03898772048129981,-0.27781918643956577,0.12874141099036168
53.5,-0.23231309797306177,-0.04965369664915109,9.696295602746364,-0.06740654554302733,0.012023623237003695,-0.055559556650501316,-0.17661629226424388,1.958496188225068,-1.1680625635165862,52.35068545208218,4.92423748439232,-0.24642845005563518,3.52018066116393,317.06448926038564,5.092734145449051,3.928019818355004,1,0,0,0,0,0,-0.4628618864622692,0.9985346163813169,-0.1901375771026453,-0.07169984423938344,-0.017193514700072632,-0.3783635583679784,0.320607486532469
54.0,0.056311959244990495,-0.17392008514857282,9.288759355747525,0.051443007012386924,-0.027545622997910444,-0.04686485121151479,-0.16951836594644443,2.538106620861231,-1.4950462284624266,52.350697788559174,4.924217940593705,0.07707652957126804,3.4847836081630614,317.6117662993811,5.368454374897971,3.930118627886954,1,0,0,0,0,0,-0.4623923981965971,1.0364929554948847,-0.19361800432866189,-0.05002910001428218,-0.040476954073450755,-0.4307037825835271,0.38000363417118516
54.5,0.5724843844239844,-1.3158219782265608,11.269447891199784,-0.012785000479729483,-0.05519196552895674,0.13378455573504888,-0.4188072642719491,1.703204742152728,-0.9967030403144199,52.35070953761447,4.924198074602966,0.3233541120343116,3.587218274840837,316.783541361756,5.301399241527837,3.9322174302137127,1,0,0,0,0,0,-0.4537948983144959,0.9332739612492698,-0.2819518712978502,-0.34357730059742275,-0.2030686833287282,-0.43631132071498097,0.31182639715834604
55.0,0.61891742121553,1.108056817343424,7.872853397645052,0.021563830539859018,-0.006257961230330615,-0.029620549820550318,-0.09636532298007466,0.3706620634637978,-0.22304502103118606,52.35072359698797,4.924178101182038,0.5486372873782275,3.730259001063144,315.7643465787898,5.121057287720296,3.9343162301510697,1,0,0,0,0,0,-0.48047216047203556,1.0220742881726568,-0.2776500563069226,-0.008148928897663,0.10428464665299486,-0.024115239791181763,0.24131823457445534
55.5,0.5955193358515586,0.6123557635589421,8.131731847312919,-0.004701458632813741,0.06773157449567321,0.0029092048478148586,0.3524353568380308,0.46778366022748324,-0.6400107236169383,52.3507359348255,4.924157456254358,0.6330837309382893,3.705387511229643,315.7089453935651,5.031032038472989,3.936415029296047,1,0,0,0,0,0,-0.4747794835384612,0.9831695683366434,-0.25337177215322665,-0.01714312136945284,0.1654797947187055,-0.13924816492290504,0.23522227496702153
56.0,0.30754615844745764,-0.1619567587985784,9.391920734854821,-0.008698311414605697,0.008686467587185068,-0.0792311097106128,1.427306233311559,0.921341478858309,-1.6425943120160023,52.35074768434575,4.924136587422702,0.6792434314949912,3.6310478605215883,315.7873460477534,4.970856580073129,3.9385138281782544,1,0,0,0,0,0,-0.4593485111985636,0.9281915557205662,-0.19124840345058491,-0.10161350105544475,0.23075597227356776,-0.3686136709155952,0.2671931630650228
56.5,0.22401377746502352,-0.2714192857381249,10.366239145591447,0.024178968718159263,-0.08695360787341172,0.06893899114118719,1.7794465745779626,1.0671110299071012,-1.9784539235307166,52.35075923281459,4.924116279619332,0.7386389134640304,3.6726323110331367,315.5829463112131,4.907210013254339,3.940612626973321,1,0,0,0,0,0,-0.4456247577759167,0.9009562171519779,-0.19514136681452424,-0.18134235805027926,0.1294377832266215,-0.3872050532087115,0.2844680174430279
57.0,-0.08530470272066379,1.0229870849392126,8.918144091706761,-0.03252109105845076,0.007357818749725464,-0.052564250658341624,0.9212224891140399,0.1551343745786904,-0.6910315947320922,52.35077322363972,4.924096158882529,0.8016325646075297,3.748368677252832,315.3392781622648,4.842416252760918,3.94271142573949,1,0,0,0,0,0,-0.47096568435368497,0.9558918183551856,-0.21278946875010651,-0.051790389533009074,0.23906122845913974,-0.10854324120729342,0.23733953309723632
57.5,-0.5174640056644876,1.992350257688829,6.654443321917858,0.049046901284616556,-0.04159304864627325,0.06452086902000732,-0.17892952264655237,-0.15952572021656192,-0.09305858107200671,52.35078553805155,4.924075782677427,0.9470673664345938,3.7777350824273856,315.0471106661576,4.706618059011064,3.944810224496076,1,0,0,0,0,0,-0.4712744613678712,1.0153520618935852,-0.2229461732671087,0.08670540647432828,0.11502260704878821,0.21532183349208056,0.26286572688691634
58.0,0.17072889327332474,2.0584144549336694,6.669897964803683,0.003030717873306464,0.011954248662175225,0.08371806139330987,0.059714190228738556,-1.1391362142006338,1.4664344364714128,52.3507972795663,4.924055321290207,1.1149140622930502,3.7934405596086744,314.74820876504896,4.547352737473678,3.946909023249484,1,0,0,0,0,0,-0.48652698478591727,0.9584234151539185,-0.2648136056706228,0.0052523081917224546,0.2211090033723817,0.3580824439752607,0.14223819222700365
58.5,0.6977046435405984,1.5120055486415778,7.890702500440913,0.06044297503849594,0.11046447311272406,-0.07208855731372169,0.13789667738356312,-1.453974534796258,1.988855434673074,52.350808825299346,4.924034513657397,1.2296771287104646,3.7310551786925323,314.6636315790684,4.553450005365489,3.9490078220018376,1,0,0,0,0,0,-0.4917848243508718,0.8879070574802813,-0.27767981614880277,-0.12238425282983081,0.3758621478343259,0.24191786142082988,0.06742928718230301
59.0,0.20286857175120954,0.3142459535139006,8.874551806116322,-0.0056542662248050685,-0.058014588787835,-0.021867214362258455,-0.18159671621039528,-0.870828788893474,1.172657652770641,52.350820304125996,4.924013590574128,1.330009322240754,3.645663662654502,314.60884085585536,4.614199244247066,3.9511066207538423,1,0,0,0,0,0,-0.4713820892825882,0.8687910532875451,-0.26655651830968835,-0.2776138444687909,0.10720694740152967,0.12202020780307421,0.1665206141983184
59.5,-0.3648182188085056,-0.7268804270539309,10.27663532792692,0.024993881862125727,0.019500438963061986,0.04290179294073841,0.03194593439136706,-0.2940369432788601,0.4979505048630992,52.35083176008807,4.923992946838486,1.369333093399135,3.7404235171691833,314.34287376429177,4.516415215056794,3.9532054195057307,1,0,0,0,0,0,-0.44890651733388176,0.796576630989329,-0.23676341630422013,-0.37665355891997027,0.11657777328638581,-0.11430102255634272,0.1929331920270487
60.0,-0.8018205461756078,-0.775586579243603,11.396394899946419,-0.00624647290651479,0.026820110857232467,-0.0744532510361319,-0.1345723173535354,-0.47206657332257856,0.08320861429799242,52.35084571929997,4.923972396247171,1.3920716235413397,3.888257276546814,314.0476099355642,4.366236290518772,3.955304058903912,1,0,0,0,0,0,-0.4393191213326512,0.7548861641750458,-0.24597985857354931,-0.4246145623486446,0.13747205820136454,-0.18047285462623328,0.19154973044215484
60.5,0.2017054456245897,0.5782867940501353,9.319256958469696,-0.004187484091102969,-0.028018658824015115,0.025279611977576,-0.1891256551357588,-0.5292837530929455,-0.05572748225880708,52.3508580229083,4.923951876713453,1.3389487576519388,3.8260012023500662,314.48022982397015,4.221109405034167,3.957402804810524,1,0,0,0,0,0,-0.44710455577226405,0.8182350094886417,-0.29034252522853154,-0.1774134344432423,0.061481541167373754,0.033751817244646154,0.17786404850110482
61.0,0.4200010265158586,-0.2540647451104643,10.631079591653958,-0.03456709098234351,0.04762664933763861,-0.08291287738742707,-0.11449657263219536,-0.47013218864416106,-0.19681652983043604,52.350869760731065,4.923931367535429,1.2652027583696805,3.7018513023780213,315.01394670846594,4.077652207311102,3.9595015860377036,1,0,0,0,0,0,-0.443021637664574,0.7380523721851937,-0.27836850945924885,-0.27999823487697156,0.11647201330617979,-0.1484340700739215,0.13902349734302047
61.5,-0.24831345662913262,-0.04986807905283924,10.507123663402012,0.002502927702700171,-0.05875973987262042,-0.00961493636113861,-0.5224317244098776,0.057199934324976165,-0.09905299902103393,52.35088381626596,4.92391181533898,1.2207160170398514,3.689964475957374,315.69084160191716,3.961934255160114,3.8411044648757735,1,0,0,0,0,0,-0.41513005629470245,0.6900093783893296,-0.23582456826173182,-0.24524765518641878,-0.03732930552940589,-0.07848449118254919,0.1719215022852852
62.0,0.5952608611363144,-0.4359177063169037,10.72076888431857,0.004491527209139632,0.023080150712554752,-0.0413204914308316,0.24419060604065623,-0.008178808950379118,0.13143657059302444,52.350896152791684,4.923892582233855,1.184183366810451,3.711151336207208,316.38764384095265,3.8553842220952057,3.68274805975624,1,0,0,0,0,0,-0.39532611148060987,0.5503045009962134,-0.23100361977322234,-0.22562821894966903,0.09667098963421408,-0.17493869623955685,0.05881878773896487
62.5,0.13776733393954632,-0.17430745171368306,9.768671339384378,0.04501284655126027,-0.017312530801249518,0.0928501919230926,1.0504643980823483,0.4607647535439626,-0.04852570582110263,52.350907901863636,4.923873455525005,1.3596719257771994,3.731500980420192,316.61356512724063,3.815920220614037,3.5803354537020255,1,0,0,0,0,0,-0.3746033284406205,0.521338516834795,-0.15897717719806848,-0.11309303315746196,0.12517020686759045,-0.14418738605178028,0.08421506455746763
63.0,-0.26870252207575296,0.6686825250686683,9.191736540734462,-0.04133641105557469,0.005715052423825244,-0.032244672623953585,1.3146091753743128,0.6114791492926144,-0.10881201106600183,52.350919450179276,4.923854364292415,1.5927988896395682,3.751603974695665,316.77410196550875,3.7986281641904367,3.4964750572528294,1,0,0,0,0,0,-0.37241832501452454,0.5216023649058786,-0.11298859496915763,0.04910682265426744,0.2268715661690106,-0.11261892379791835,0.10217689004170731
63.5,-0.1223953306016877,0.31900307706123876,9.3732192686609,0.011424160447352602,-0.0294057258957482,-0.0010036966180762934,0.6824918893626674,0.21278152504199932,0.04397389591104689,52.350933440952055,4.923835602731733,1.672090344570327,3.76458038360922,317.01167950625694,3.792913177691507,3.3998620641533566,1,0,0,0,0,0,-0.3548627916691601,0.44926854098720825,-0.1386974381781832,-0.02596362290446888,0.11796731272945178,-0.05228116127487965,0.0647723767907712
64.0,-0.6764858306529312,-0.7749954980960166,11.666573324366572,0.02338936236414867,0.056046535080952815,0.013883971014331512,0.3236602823333553,-0.20870200570719255,0.3126190544833508,52.35094575534599,4.92381663325239,1.7095613607275102,3.7754572486095883,317.2599545784668,3.7910243872617935,3.2990198666582806,1,0,0,0,0,0,-0.33526880752986565,0.3114409874087901,-0.11892547508594195,-0.264964525451456,0.11358898668439638,-0.17833859885037195,0.007665359123926269
64.5,-0.0560723833312754,-0.002127279493765233,10.819192297209819,-0.03747147004144312,-0.024431575929961764,-0.06612426096068609,0.13171409570213843,-2.076188203023074,1.9878997966753902,52.350957496854626,4.923797912288523,1.8846571367209883,3.7292842087310114,317.2083355398109,3.7904001461917503,3.253256166477341,1,0,0,0,0,0,-0.3597947625810796,0.2999868878444884,-0.1707599543821639,-0.32789808888329064,0.15731175602627723,0.18861296182549278,-0.11765439897922864
65.0,0.9642865924920073,1.6300226015543497,8.544213190171826,0.030468958887267777,-0.0414400597612514,0.07638495039646732,0.06883026737955925,-2.6763820777407945,2.549109002332906,52.35096904258558,4.92377927418846,2.0971664324046477,3.6663038516796824,317.115048250273,3.7901938358952774,3.2257577225709753,1,0,0,0,0,0,-0.37494663350233565,0.363328531161911,-0.21431993445242786,-0.11012882224538284,0.1554750580135127,0.509978889471641,-0.16564320391978438
65.5,1.7475894576881195,0.5559204982220574,10.607223028692724,-0.016636927324774786,0.014039857266719642,0.03738260722843776,0.003074418314622629,-1.7502500603229052,1.8656256456205853,52.35098052141152,4.923760028032357,2.1770294263647205,3.711234664593965,316.6715225797634,3.7901256507974472,3.081482493270291,1,0,0,0,0,0,-0.3366045180149959,0.2150305650263112,-0.24904874428306661,-0.17458350531724443,0.06753618963916339,0.19182856255284703,-0.18701283803258328
66.0,0.8214793726212767,0.3878519820010501,10.16160194509433,0.0006169261832314928,-0.015630661195266526,0.10395509186829963,-0.34287432194785894,-0.9309143464148282,1.026945341399501,52.35099448843691,4.923740579128976,2.2208323027466164,3.7879568935315224,316.1793643555657,3.7901031157730416,2.898481640737326,1,0,0,0,0,0,-0.291347425489714,0.153098460069652,-0.1864741376896011,-0.06871952667039295,-0.060603904475995105,0.1390013823550649,-0.12196451451590985
66.5,0.9500043215695735,-0.4273571566714188,11.272910686443852,0.01998161280466402,0.07976067588333932,0.01133231319602461,0.6327144478289427,-0.23863120559323625,-0.11422757820213914,52.35100679471542,4.923720426936774,2.4495572894178195,3.8176137410376283,315.33600071808775,3.7900956679971913,2.786176004894995,1,0,0,0,0,0,-0.25901660532079307,0.03643097618010567,-0.13691754971964065,-0.057494412952997634,0.08863822107802238,-0.18317945091531182,-0.12695574397685278
67.0,-0.02542106437386704,-1.1386504747299497,11.17480321058877,0.02547326268572571,-0.03235066595742443,-0.05238868408685335,1.147467008233277,-0.5465612938775639,-0.1753073157924221,52.35101853345069,4.923700040243335,2.728553659106791,3.833404784643562,314.443843969047,3.790093206523704,2.697314477247487,1,0,0,0,0,0,-0.23624681418788313,-0.032735160127581514,-0.06153413864125836,-0.16032038024742895,0.11924362082619461,-0.17124596057761154,-0.10959359021518977
67.5,-0.3236048822532678,-0.7573662694576115,10.933149923784853,-0.012560133584568513,0.037032079388440886,-0.11549932545782543,1.0783636105205205,-0.6006170393841066,-0.19176919196706724,52.351030078233876,4.923679893201808,2.7677158732042755,3.788679497546388,314.79360822457437,3.790092393012147,2.676141011663875,1,0,0,0,0,0,-0.2419928722004791,-0.02196133477372375,-0.03130443521858784,-0.08638183023416664,0.19315451561386393,-0.16367758821806344,-0.10704807820228107
68.0,0.22448151288789897,-0.5072118300848445,10.399666704269302,0.01563600333610728,-0.008496966803654811,-0.01681798484758587,0.2482792065805316,-0.46100345376710683,0.10274927341952725,52.35104155673592,4.92365982606866,2.741678773506237,3.7261256590008554,315.31579386203055,3.790092124148372,2.677414255479656,1,0,0,0,0,0,-0.2433239247233891,0.001401619550794403,-0.0830526755592198,-0.055187919780468095,0.01574380324312367,-0.056024899731603225,-0.10159312632039393
68.5,-0.6320281387332818,-0.459746973588516,7.407240627714824,-0.01064759539962501,-0.052968195667410393,0.04562794634424979,-0.2437228748652513,0.2986869059607532,-1.3153317438476746,52.351053012587066,4.923641056951272,2.765359370515321,3.6477384346144808,316.6369721721801,3.7900920352894873,2.7570459415887973,1,0,0,0,0,0,-0.24582753040494182,0.13787724319041336,-0.030799628875949694,0.1822870564861855,-0.12344228388079173,-0.010000935225857353,0.059666887705774926
69.0,-1.0188769859398346,-0.5350145468892349,9.193542523420371,0.011106807192617134,0.062371277497488505,-0.020427410016638857,-0.10283274343212592,-0.022198568682364805,-1.9518430262891144,52.3510644606975,4.9236224027951305,2.802555806003724,3.5646865795278404,318.0690687936352,3.790092005921822,2.8626630321580793,1,0,0,0,0,0,-0.26545422863917284,0.15083823450632527,-0.008692694657031992,0.0830016053887362,0.003813413377702985,-0.15679671332457026,0.06474406339102408
69.5,-0.9619340179363849,-0.675030096130514,9.782170758464032,-0.0259810176979388,-0.006467527218492121,-0.054409748257257015,-0.056675479290128186,-0.12532837850023681,-2.1650705661363188,52.351078417226184,4.923603786971113,2.698922664856993,3.60370418304541,319.60271301959483,3.876296847593594,3.0160673900930814,1,0,0,0,0,0,-0.2914903582578159,0.23140131844144013,-0.05017538850340094,-0.008689209577170204,-0.03484522637697576,-0.18241424807249482,0.10437397011644597
70.0,-0.0766288358956918,0.27892759663320055,7.922124644852059,0.042279583458535885,-0.024684248918319027,-0.055014663872739476,0.2002361923812946,0.0045647686517402974,-1.3946425582295405,52.35109071991754,4.923585183928374,2.5570045956429044,3.678684505638518,321.15043141707974,3.9909922089620293,3.1853190700804306,1,0,0,0,0,0,-0.3346038849640131,0.3851184143532136,-0.11264318999702604,0.12614838159385278,0.05595024040148963,-0.03644423812164452,0.10938762705972616
70.5,1.3432359216692569,-0.025386820730011972,9.183560222913776,-0.01248651972694366,0.0234492059093661,0.05217426729896248,-0.18111846760219996,0.09758779260104875,-0.7435532908324465,52.3511049684905,4.923566585147364,2.4631204394707833,3.6337619255686917,320.2889102291175,3.9426939214800827,3.1862169456320575,1,0,0,0,0,0,-0.3352134449067425,0.3334534981531923,-0.20985909869873143,0.04156912907291044,-0.06491572065709017,-0.08785661078455242,0.035686486605460324
71.0,0.6480563255357623,-0.01577339381658601,9.157017406923694,-0.006831691852303864,-0.042626486354134366,-0.001472344451172343,0.03994494198690807,0.39787429033893995,-0.7871641782292723,52.35111737098501,4.923548305630237,2.3822942087861128,3.5535150777500286,319.09285268005823,3.840526592643403,3.1312849504942277,1,0,0,0,0,0,-0.317547979572024,0.30494022727785375,-0.13872188322921575,0.05397676877975949,-0.059321504421912835,-0.09262042805814848,0.05872269223686722
71.5,-0.1268962695759147,-0.6748750503867171,10.338956678999647,0.007703667402660238,-0.012956474233271086,0.06433107252600584,0.11236791501379004,0.494383767550478,-0.8017735692749591,52.35112914260111,4.923529179038299,2.3156829906428893,3.540454737197761,317.8934158793973,3.806760515860511,3.11219948140136,1,0,0,0,0,0,-0.3024249889858792,0.2538411386707456,-0.09066518736559499,-0.07147187161232947,-0.06300466348645595,-0.18617812765915828,0.06501012191880881
72.0,0.5902743474902971,-0.4869245648912357,9.984089811068376,-0.007578129297669368,0.00878828351111717,-0.0032163413459981027,0.04084966602462839,0.41374865615638723,-0.5856857757794081,52.35114069862098,4.923509770001819,2.252936320888123,3.5471878624745994,316.6934835707516,3.795600901977185,3.1050013592720367,1,0,0,0,0,0,-0.30438363743825986,0.2526308700148154,-0.12972649135677902,-0.02261645462464465,-0.035825929154824285,-0.17106824471146403,0.02620727639905028
72.5,0.7088194860610516,0.17671800044407127,9.485614567456333,-0.001592600292295715,-0.023473665711220677,0.004433005041651268,-0.16843230299756523,0.07182376897249032,-0.16115535164159578,52.351152180963055,4.923490266788391,2.129265483791039,3.5562254106784823,315.79488826090557,3.8212626473272793,3.1784929413955947,1,0,0,0,0,0,-0.3219697304696533,0.32671498821514505,-0.15860782104269097,0.0025093260556533353,-0.04344044036880095,-0.032228060260892755,0.02291218151754236
73.0,-0.4128952082714171,0.786819209031923,8.823732964238904,-0.016638549983710758,0.07502568570406953,-0.02188563199221464,0.29550476418465743,0.3991694274530348,-0.46361413546974833,52.35116614919004,4.9234707321730555,1.989032484151695,3.5659418586477054,314.938135274941,3.859093770670153,3.27874302636088,1,0,0,0,0,0,-0.3397327603437968,0.4343360328413717,-0.0777639504818035,0.12649899923381416,0.133879000030923,-0.061104174741358486,0.09112879378606469
73.5,-0.07775690966490334,0.2413503034951605,8.833380069540782,0.03184977383906293,-0.0053199865688672715,-0.08606982555871587,0.4082792254392722,0.7302480602774699,-1.0712591472424366,52.351178455879186,4.923450869244346,1.924026708855968,3.6005471212514712,315.1636491336176,3.973362771826277,3.404708437962219,1,0,0,0,0,0,-0.3489301712693324,0.49659854681475357,-0.11473073360802369,0.06940113667078412,0.09781200926520062,-0.159685611496333,0.14417738638749125
74.0,-0.835160948690781,-2.396242517805219,12.398213219309852,0.030246420046348692,-0.03093713062473437,-0.12224580586225234,0.4452254653472924,0.8366538627710836,-1.2748166560170533,52.351190194754786,4.923430896844406,1.8794714927216496,3.6424848097813487,315.539415503174,4.112894642208904,3.5392017838946916,1,0,0,0,0,0,-0.34683641018510636,0.43121090840218157,-0.1171132051259046,-0.4170420821726184,0.037166850476521865,-0.5096060341327454,0.18170810180755864
74.5,-0.6822409245328525,-0.6592558003460329,10.324620814350709,-0.05052095276501021,-0.07679935169241622,0.17967265635028454,-0.6482157003016304,0.39104692891166576,-0.8892970027480505,52.35120425064948,4.923411523628655,2.1404420525704535,3.6407321170440716,315.9360452723438,4.027893586447256,3.4974356336439154,1,0,0,0,0,0,-0.35458728378052523,0.5117917640543774,-0.17083218498830383,-0.1907524616972218,-0.22112079151492514,-0.10964644587882573,0.20377022786863386
75.0,0.8654565786457795,0.3548369820174502,8.79490586995684,0.026693332563378115,0.010635439173586558,0.051861228952708144,-0.26345706235862537,0.17630424765807365,-0.3614449938891755,52.35121658729816,4.923392668044865,2.484470215593923,3.6261077518387284,316.3355720409771,3.8686848939508303,3.3972179092651733,1,0,0,0,0,0,-0.3542900534694152,0.45259868082360716,-0.207031445610703,0.03133320173551041,-0.0214358327972657,-0.018639105989396946,0.095091624487111
75.5,0.3952556976089327,0.3861825156360408,9.605736525766414,0.0018895403900690173,0.08606840171566346,-0.0600948977546818,-0.5878009556826769,0.39727808017537325,-1.022909710667515,52.351228336412134,4.923374620743532,2.402029041280717,3.501882658997076,316.0896427594953,3.8229155037570037,3.339324774649934,1,0,0,0,0,0,-0.34299900726982147,0.41839069935026785,-0.15803008667149943,0.06349357509481107,0.0018172274115514225,-0.1359556900083357,0.10900560179328062
76.0,0.28439808604456285,-2.1240306698607694,11.558035353721845,0.04855001683093149,-0.04023938271329325,-0.08014163214370061,-0.694059829918366,0.4682971543406369,-1.2444965044056906,52.351239884742135,4.923356842952005,2.2036514688318585,3.345368225967439,315.7541145835574,3.8146373930869966,3.2954672571899133,1,0,0,0,0,0,-0.3103863165087359,0.2754169664504667,-0.13924597261447702,-0.30630347648187656,-0.16634069412502514,-0.35683049755764806,0.09436204712642589
76.5,0.15509988279218065,-1.220821913142296,10.311744955334799,-0.031574158583996384,-0.046835537105684076,0.07365336624614748,-0.2873604050145377,0.32615880212099885,-0.854877853703466,52.351253875519824,4.923337883653034,2.4325157971630924,3.560253329605098,315.7936180418485,3.805052923959024,3.2353986529001366,1,0,0,0,0,0,-0.3102971260274394,0.29683822476343036,-0.14838142478137095,-0.15822825650250927,-0.15765731341118958,-0.18563313633202216,0.09273547269183541
77.0,0.12444219831724108,0.8216866458712104,9.397860521521352,-0.012047521123735774,0.06244433956755383,-0.039718774001483007,-0.28284303039831843,0.10762197218058761,-0.3577683699314612,52.351266189915435,4.923318530397914,2.777526546286052,3.884555271522248,315.8852230154423,3.795036546620967,3.1699539318527328,1,0,0,0,0,0,-0.3189394720472474,0.32901253009093595,-0.17455129189299384,0.10446172623749116,0.056342270313989744,-0.023446855321116074,0.06277871986768674
77.5,0.11471740856818848,0.1506790032556613,10.12356574467663,0.004065232115089034,-0.007983421112642074,-0.047768837273761286,0.38759193736766756,-1.3467083702345386,0.9799603629967703,52.35127793142465,4.9232990457839545,2.9386315425153096,3.874288008194411,315.55349036541463,3.7917261560084854,3.103898576353524,1,0,0,0,0,0,-0.3195695527026965,0.22324543369454297,-0.16315186710852547,-0.15450113686118633,0.15999033417088246,0.10674854964477712,-0.05700965077923591
78.0,-0.2823168953007811,0.6621233706741496,9.38697942849819,0.010127417560530354,0.0013210370888111847,0.05151473352632972,0.6072343181535415,-1.8141175348046785,1.4280916288105028,52.35129198821935,4.92327983521321,3.0497414541739523,3.765454390266343,315.1629749239297,3.790632079214317,3.0376405615179634,1,0,0,0,0,0,-0.31993439135570634,0.21880572261026718,-0.1092415275138998,-0.11050115416812054,0.2017353982633578,0.2579569571852797,-0.07909972803099242
78.5,0.17062702789866036,-0.9308755978172496,11.282816003172634,0.012224861017251117,-0.034409848608899354,-0.03675743062995934,0.6186522140416897,-1.8424957802265707,1.46029095474069,52.3513043251756,4.92326039817524,3.027754360458771,3.7686608168363174,315.6254415833592,3.790270489247554,3.067497549706142,1,0,0,0,0,0,-0.3127885445300241,0.13048729810700538,-0.15029839436985193,-0.3759695430664864,0.1578765414049852,0.05896677999361139,-0.11099060452654302
79.0,0.3242333145380364,-0.6459731881483024,11.049665417682071,-0.013314779257681705,0.00545972428442161,0.01606203269619158,0.01616518836181824,-0.7532393039503278,0.4698828386859045,52.351316074394674,4.923240885625131,2.9695844510249465,3.8048750559157716,316.20632328748843,3.790150984561265,3.129228572674314,1,0,0,0,0,0,-0.3119590316494609,0.20090806641935605,-0.18260531571739727,-0.22541465149538745,0.02460216205097962,-0.049223158439315844,-0.019735021889010523
79.5,0.12141754449136588,0.3334766142836909,9.728093501009567,0.005728579612467137,-0.0281278691982096,0.0071140445410022134,-0.006486622549541937,-0.34130735359373204,-0.03505668816710161,52.35132762276059,4.923222301425239,2.7380511140072885,3.6286150570930764,316.0716958488063,3.8652055477284524,3.2075340222791615,1,0,0,0,0,0,-0.32938480340110754,0.33378450731353937,-0.14393931032112556,-0.048847152643227934,0.018852222358990846,0.021981826303762404,0.053171364345788175
80.0,-0.04237175008303615,-0.30217542211894577,10.28550551481291,0.0344561438162216,0.012571379210911532,0.01620435285458254,0.12173621649361013,-0.6177314302362185,0.21533696291953636,52.35134161355056,4.92320402676997,2.459388641075567,3.389758433269543,315.8377159727769,3.9651049744750773,3.2913359208593027,1,0,0,0,0,0,-0.3472667872437737,0.3606255627119383,-0.10528212343141927,-0.18902059536512975,0.07182148193306187,-0.031307162005156666,0.04001222727360414
80.5,0.42220747927192936,0.5297829785491684,9.134193077308126,-0.031370477906107086,0.02606743985364411,-0.0021227150347243283,-0.9087805682380267,1.0604946845333723,-0.7330058380450728,52.35135392795036,4.923185855327769,2.4539245191450583,3.4745759526250057,316.49415786493535,4.0524401626603686,3.3664435408866913,1,0,0,0,0,0,-0.35284095753393646,0.4968165085216847,-0.17181895924900553,0.09942224003710484,-0.11817771335260846,-0.10851456099547598,0.17969450820220065
81.0,-0.3056294493077172,0.4722461400505495,9.657607283913203,-0.025081115075929205,0.005878090682968833,-0.030151408394239264,-0.3192929803536628,-1.2414764759096275,1.9184228904177134,52.35136566946101,4.923168036143309,2.52272982298261,3.6547502301831614,317.27421350852484,4.1356228977198795,3.4386681038832707,1,0,0,0,0,0,-0.39556625684070135,0.48949768397569005,-0.17581041641390083,-0.22181066955279732,0.13385846951862737,0.19954236233460135,0.04170648873216043
81.5,-0.13481660399454365,1.4473565164041071,8.601971268481446,0.017189592108934216,0.02669098029310565,-0.006405817731227673,-0.547864393435098,-1.0164781481916025,0.7169174821224236,52.35137721519265,4.923149380885353,2.572527325687554,3.6796152016355523,317.12419577385805,4.033701900900334,3.3809455227768326,1,0,0,0,0,0,-0.3806332387959907,0.5064967763935737,-0.17781329820412856,0.011130207586956709,0.09898140145992021,0.23634175718734163,0.0679216788482277
82.0,-0.5171766896712501,1.0974687148961042,8.983961945805559,-0.0019319999096337956,-0.07008837436408305,-0.07864590048332885,-1.3896236230861683,-1.7103846020696878,2.495960555206012,52.35139120508237,4.9231304468510775,2.6171575260641387,3.6587249212056037,316.8450058803439,3.8706045290634923,3.2801297341942943,1,0,0,0,0,0,-0.36886250861510406,0.4038385617265077,-0.18083902493525053,-0.16366425029013024,0.007423186863500041,0.4265857034936507,-0.0033659442290568387
82.5,-0.13222283640576582,0.1547729447393157,9.577723469694893,0.05181918499442285,-0.021922623143575272,0.1422558334771017,-1.479789108475923,-1.5827723857445313,2.3345238713457332,52.35140351917453,4.923110784177222,2.701737043896434,3.6737322540423354,316.8062388056223,3.816701207490564,3.2422047936686056,1,0,0,0,0,0,-0.3491241465419106,0.3234350491152799,-0.20536824221819294,-0.2602194226312359,-0.09683081668550418,0.3420172875386178,-0.02987607073951115
83.0,0.0008326042185439197,-0.5904135553724078,11.409884439833572,-0.025841593740912265,0.08773996697886896,0.008941328598887716,-1.2715089623095959,-1.1911312713970492,1.5230380285912437,52.35141526058004,4.923090878549297,2.797176850073766,3.6993152850015822,316.8008557809592,3.7988862786301456,3.2251358589001544,1,0,0,0,0,0,-0.33905710375921383,0.25184084497842685,-0.20678849104695962,-0.3192489852715552,-0.028335517586831872,0.05247300086751637,-0.030961800217437718
83.5,-0.274857889916745,0.34113757707840964,10.288917241902356,0.002635474415907498,-0.017268417727717283,-0.11162297999819575,-0.08967007245711844,-0.7146335176239351,0.49378939694886603,52.351426806275754,4.923073116812053,2.9033678603178483,3.467018598912702,316.06815658536703,3.857401875456073,3.266826087880122,1,0,0,0,0,0,-0.3464673916894795,0.34559662670382,-0.11004493289893869,-0.13845256043471507,0.10170889483196469,0.04360064351183761,0.0527514276836773
84.0,0.8486201515255588,1.0311998027435723,9.601322920545494,0.01534605819359069,-0.019991170351603513,0.008207723553504506,-0.3475085982690409,-1.122980111183503,0.4115106206072521,52.35143828508965,4.923055752080514,3.0124817768597842,3.1587488395739407,315.2344392006427,3.941144702245632,3.328002004736843,1,0,0,0,0,0,-0.36832154301792325,0.4196365709129283,-0.1501197725560495,-0.07551161175846642,0.01745804781416828,0.1733845461531333,0.04013475275909048
84.5,0.9939992260157285,-0.0730530796629909,10.359183160565108,-0.000442067540007007,-0.034638210409551236,0.07617064717404971,0.542957335464224,-0.6044723917287536,0.27373468521001765,52.35144974104737,4.9230372483531495,2.974640361233284,3.3818300392675043,315.0325531912871,3.904417970615929,3.3000685622216426,1,0,0,0,0,0,-0.3469689670724533,0.34038611315689304,-0.1597662825349195,-0.1690807623009456,0.036967384197663475,-0.009777617278438332,0.027380698076822196
85.0,0.7792767307034634,1.2955924010139392,7.8916809181298415,-0.004458503783452716,0.030576038206648885,0.03426273592227423,0.74995155605258,-0.038395229886633464,0.883227378402213,52.351461189194225,4.923018364844505,2.89684906792504,3.761451266714538,314.91840049430914,3.8278764753257306,3.242584312372886,1,0,0,0,0,0,-0.3446829879363644,0.39136191940600445,-0.16261870003617035,0.15657708428959605,0.18988986142737946,0.127293908127661,0.029732706599884598
85.5,-0.3862477049743578,0.1807493666810598,9.19803700650142,-0.005310671356905639,0.07093309660493419,-0.13087543926355705,2.011293199511533,-0.5607181292407213,2.297884225979372,52.35147514573535,4.922998083331924,3.0788303156277324,3.7463197060183853,314.6872636504238,3.8025796799952225,3.1851911202505923,1,0,0,0,0,0,-0.34214013622001876,0.26869200199404186,-0.0434282713198532,-0.09181185197447093,0.5048627715252115,0.036602178318152295,-0.03982522179550818
86.0,0.42220455643934074,0.34335114922949567,9.411343984983965,0.012250864048314717,-0.041458842429414736,-0.04998674706613754,0.5227735665278759,-0.42508398733289554,0.6031670117054595,52.351487448430966,4.9229773356756485,3.3314313339433825,3.6148911010198956,314.43988290491535,3.794219144947306,3.127828124898194,1,0,0,0,0,0,-0.3168729658447824,0.25973550269576734,-0.12754308828412228,-0.03834031971994882,0.1183633702528257,0.05568211452686206,0.020310584280771524
86.5,-0.8585590258576835,2.3989388627006076,6.479306405385297,0.015655915739783206,0.0013984300236925332,0.062318378835314006,0.7173655540062019,-1.8027892479701708,2.19477701115796,52.35149918594182,4.922957386119286,3.47432438134502,3.586752242313996,315.05139102256123,3.7914560065586604,3.0727099193188616,1,0,0,0,0,0,-0.34652734940675595,0.35035172466148223,-0.03254246700355198,0.1659710250298594,0.31635530413068874,0.5525351527903929,-0.019189839189458976
87.0,0.4685622038018685,0.5886076102188778,8.686067217075179,0.03945935752243046,-0.055642115529555544,0.004664435520974418,0.8066428760531947,-2.662409216173785,3.1123700886920953,52.35151073030657,4.922937702677514,3.587393134521959,3.589043126404965,315.78216065184836,3.7905427954171427,3.018336136018404,1,0,0,0,0,0,-0.33674358451948067,0.17543363036971305,-0.12187588401706839,-0.20778720918803367,0.274766664634022,0.45015119078604376,-0.1587531220407996
87.5,0.06951743796436904,-0.0003188092385603136,9.350580038182803,-0.02355444178306798,-0.01990529459287057,0.07405345803882374,0.8358911767943237,-2.9386836219725554,3.419758378421947,52.35152220866563,4.922918107967707,3.6092902745987736,3.4944900267551757,315.66834598801756,3.7902409811495623,3.0191344455282225,1,0,0,0,0,0,-0.3391066180554038,0.1470517276828758,-0.09315831938679354,-0.3242146686222628,0.26266685595203976,0.42779874283037117,-0.16933726702458274
88.0,-0.44768620509462254,1.3732379834142945,7.776242407977765,-0.01215208370078088,0.060626562906437385,0.006836111790873262,0.1717148273266439,-1.103601036129464,0.892256728860152,52.35153366446791,4.922898860687134,3.6064022601295274,3.371405984688259,315.437256081921,3.790141232199978,3.03822904966345,1,0,0,0,0,0,-0.3275587190926147,0.28477758394918856,-0.033738040074462315,0.1235887704838232,0.191712002706766,0.27785057882721426,0.019570036752680764
88.5,0.17357775219605232,0.8748951812314805,8.873501688924303,0.008938066438903105,0.03572856989048446,-0.08925531904408199,0.16766891741452827,-0.947477589514266,0.5894798739436338,52.351545112561645,4.922879411408816,3.6536417694137597,3.4621152672130076,316.00797956456927,3.836984069787651,3.118038584903994,1,0,0,0,0,0,-0.33322025438387387,0.28313598002692036,-0.09864416174787752,0.023716029345754383,0.1808646114157112,0.14401872321044948,0.023123131218490717
89.0,0.31158016691732787,0.352355478358207,10.018999754653006,0.021235885080766168,-0.040226785006461145,0.023261789320746684,0.15026285905931758,-1.170262381055411,1.0941269735242136,52.35155655802106,4.922859894777344,3.7145085293409843,3.615809619098589,316.6900130306877,3.899341488284723,3.217982702737946,1,0,0,0,0,0,-0.3441940703256132,0.2948477538660394,-0.16451193543300047,-0.17477682150130713,0.08892070990620404,0.1548768529459707,0.023984448512554185
89.5,0.3400752218002526,0.32124834988729467,9.773650375114013,0.03978740948895203,-0.013655548838988812,0.007289618850700917,0.14456042962014967,-1.2418634817518688,1.2631807868703957,52.35156800258023,4.9228406735308345,3.843677268267899,3.59407676492,316.224978566822,3.8730745135102547,3.174781967413921,1,0,0,0,0,0,-0.3379998820105894,0.26431748089690144,-0.15242528363441818,-0.15936055620105552,0.12457377403664596,0.16722296007597456,0.006103405706094564
90.0,0.8237331265793986,-0.06302724139476856,10.437489748358837,-0.024174417019476743,-0.013051283141976611,0.0373345175011037,0.19253046445386246,-0.8263706261301477,0.5863016391493675,52.35157944683174,4.922821550776063,3.9914138400978567,3.520661779118114,315.6006673197149,3.8175175319010344,3.084111211032412,1,0,0,0,0,0,-0.3148167150849024,0.1898467172377855,-0.15903441258964585,-0.14477261338147132,0.02903591138453706,0.042113376446845055,0.006811531886988062
90.5,0.7375843974043556,0.43523659570327317,10.013418690428358,-0.0033350550868996715,0.020246231051017537,0.05988037699371984,-0.1402140749453838,-0.46638064320626615,0.13615740888386946,52.35159089097812,4.922803096547651,4.2486168030782165,3.449655746537482,316.0306701268463,3.7991560720468627,3.0661190681178843,1,0,0,0,0,0,-0.3116382383884002,0.20791324950919685,-0.14428670788531545,-0.027702568872738337,-0.0031115480609745366,0.04864032048140636,0.05045561085013633
91.0,0.6735504940938513,0.4647175646110261,9.114048954894933,0.026928869315302705,0.024304455182359422,-0.10111441703817203,0.6055115836534202,-0.5537849863356296,1.210466128018927,52.35160233508857,4.922785183072319,4.535578039214855,3.37935924092888,316.60707032396294,3.793087650073405,3.072228612584608,1,0,0,0,0,0,-0.3257836624801894,0.2004910476229532,-0.09152791051406631,-0.017136252077165,0.22271814320003555,0.0917610275562038,0.024741595905572983
91.5,-0.706936909797824,-0.5494452391086638,10.121338879069562,-0.004491034262975955,0.01186513991633552,-0.08186993662556832,0.8498200802903778,-0.5818759845156265,1.5703532369149813,52.3516162902503,4.922766496374469,4.594171657684255,3.5032550011967123,316.2995812070978,3.8043475763761214,3.0938645767185062,1,0,0,0,0,0,-0.3189980415545257,0.1674215188541448,-0.03496517290201246,-0.2088466428786021,0.2519556350433788,0.018834188517442778,0.05830018615397917
92.0,0.4932883134447539,-0.6818095568758833,10.956873886358133,-0.030775138844130807,-0.06828032070900043,0.04789778162254313,0.4818577171644084,-0.16266481114531844,0.8511996291269314,52.35162859247452,4.922747551857027,4.590683506958104,3.684361048097373,315.8693591264801,3.8213344835549776,3.120649447378123,1,0,0,0,0,0,-0.30762183524696507,0.16728182091553662,-0.1633502519916948,-0.22631963427346022,0.011603521274211319,-0.04729179712531058,0.0728342601766287
92.5,0.860157500601442,-0.28936000942827883,10.808941676273509,-0.0036259326040801003,-0.050839716599257886,0.09608902045776499,0.1292224176760421,-0.4586775815336608,0.5104577906164764,52.35164032982428,4.922727885687714,4.409524130720324,3.600164673813232,315.852693378753,3.8136830925247036,3.113835092530923,1,0,0,0,0,0,-0.3097295740547431,0.1824618198327701,-0.18372464752143608,-0.1833120618699744,-0.040468274458782046,0.006396042042271295,0.05071943091764847
93.0,1.6346359509832311,-0.8398997469093878,11.84852376349383,0.0016414996141833373,0.10327871809844809,-0.04396653131659792,0.5573041616578378,-0.949435824106754,0.8749896573570481,52.351651874133985,4.92270797889428,4.180064883750547,3.437808107262437,315.89342595563886,3.797888798292378,3.095878326917329,1,0,0,0,0,0,-0.31918189717632284,0.10727659381515153,-0.1783989576360917,-0.2729198092152045,0.16519993975953876,-0.1347062733758649,-0.06530414291530086
93.5,0.6877299280337932,0.14664849718611717,10.493583157337818,0.004962724939680037,-0.07020973188426922,0.010452723331359895,1.0910572328209338,-2.728301276323125,2.4249350307853974,52.351663352474226,4.922689263239794,3.8776328644682847,3.333545317202587,315.51158268047675,3.792668818893359,3.1172816201258886,1,0,0,0,0,0,-0.3468783209761067,0.17520306692771745,-0.11514373329130845,-0.35183338579431706,0.2418064088186675,0.3095190960741187,-0.12851991832497636
94.0,0.901291703950287,0.15293798311996226,9.8359957069161,0.00454721505579009,0.04066241235282919,0.009675698326226978,1.265921016690505,-3.3000132118125416,2.9441576243049226,52.351674808270076,4.922670944752938,3.555363249358162,3.2463973764894285,315.0710361100493,3.790943627218101,3.1517374260111835,1,0,0,0,0,0,-0.36491320614278877,0.1956860318423614,-0.10406754683230254,-0.34230931069307147,0.37667150413103967,0.3557919562275486,-0.1955664901203973
94.5,0.5250626948606139,-1.0307083269617239,10.622995709114111,0.025459733212900244,-0.002695267144829795,-0.06158471928108921,0.31077213228967226,-1.0049687268727485,0.6915450261085123,52.35168625636161,4.922653712224365,3.5450219490233335,3.284208243371105,315.9140548887977,3.8125685423132616,3.1903754491037493,1,0,0,0,0,0,-0.32974359602061465,0.20915520049390848,-0.10790439818022636,-0.28803056309831293,0.10434629671055362,-0.042822291547952675,-0.002195912987659643
95.0,0.8371435242427085,-0.310542595070167,10.706448644489305,-0.0028450412724821197,0.018312454250317918,-0.1423266616587853,0.762627154419979,-0.6652761539705074,0.4746593340607832,52.35169770182028,4.922636523949616,3.619478879476718,3.3588330525689414,316.9353301592024,3.841910456560174,3.2304002292040543,1,0,0,0,0,0,-0.34350548740401554,0.25336820695620044,-0.12292892653432363,-0.1818364967439903,0.20013263483667962,-0.08837404874001709,0.013879792483952658
95.5,0.5810235442171249,0.2390855376945954,9.610046617063755,0.003100453695493741,-0.01750019335519324,0.013686508535610958,0.9867710019203307,0.5069063827739952,-0.49955654494789303,52.351709146379186,4.922618079059153,3.84918283153868,3.5042617572165065,317.20630633660375,3.8294129669697585,3.1717750338338133,1,0,0,0,0,0,-0.3204835833523585,0.28022064303083694,-0.10451695380301305,0.040387139866239874,0.10112701888415088,-0.1168932025752653,0.11147480397743531
96.0,0.07270304254419202,0.658547916938679,9.685380232875971,0.02459348753616653,-0.09898659439454066,0.024267876712347494,1.060203162637621,0.8836356885200383,-0.8259131404890149,52.35172059063061,4.922599215168801,4.12109111804544,3.670549804757195,317.37309929792985,3.803087487093825,3.080435150367896,1,0,0,0,0,0,-0.2976111095120635,0.24878394983296143,-0.08898525315716538,0.10070218635457977,0.052196762935589766,-0.09572177460460528,0.15337959673699728
96.5,0.12782559598871068,-0.8515800108501779,10.818117689061232,0.012724275032572953,0.0046408367453246585,0.012534552756445976,1.0342375575278162,-0.09687462797243984,0.10555494896268547,52.351732034776965,4.922580847254893,4.250589534939427,3.613730498159131,317.2670930244679,3.79438697407309,3.031641459669543,1,0,0,0,0,0,-0.29516007176306225,0.12055956938259325,-0.08648086056369962,-0.16454809962384886,0.13511313469739594,-0.15349033018216712,0.047419638945174376
97.0,-0.5668129984799669,-0.560083216018936,9.853008504553605,-0.0011810266002090196,-0.0648921087928662,0.12913576059909798,-0.09463100642271938,0.19106324939193936,-1.0045888069689677,52.35174347888741,4.9225623268741066,4.341373939305956,3.4911823094891385,317.12320705491123,3.791511473714474,2.9969570339711904,1,0,0,0,0,0,-0.27919130488526045,0.1685501818571774,-0.06484285248199015,-0.055044281671721346,-0.13061423845124961,-0.06445493201119172,0.15249509780833648
97.5,-0.29440118588377007,-0.2694796039039083,9.798094566402149,-0.03146800537101052,0.014554098278216562,0.0785420216125352,-1.1035240111365878,-0.2917133953661875,0.15161421698022592,52.35175492298558,4.922544391341247,4.265995375975666,3.426863039249796,315.9837241716575,3.7905611271897697,2.9947232340948156,1,0,0,0,0,0,-0.2920621581093752,0.1732198647802779,-0.10419507427127453,-0.07490318152594666,-0.1452647913973212,0.05604814778680563,0.09708374480128709
98.0,0.2429442872496942,0.518124627948616,9.628487534751631,0.025808272747214853,0.13645405575184927,-0.09747217901683794,-1.4340492256133417,-0.4468736238364537,0.5389354368256362,52.35176636707955,4.922526650817261,4.145445133718571,3.379698263977383,314.7060233810935,3.790247039759973,3.003250943750713,1,0,0,0,0,0,-0.3041597509399282,0.19285010727481397,-0.12233840375296237,0.023694306282433034,0.01263833460527624,0.07002903075598202,0.04295573242576889
98.5,0.17288007861030583,-0.14614470159655135,10.889666879240153,0.012463161892502397,-0.03856959408189051,-0.022655810220485614,-1.4693695886412534,-0.39933828663640464,0.5648979104563323,52.35177781117209,4.922508657473221,4.350866844613192,3.4116537452369085,314.35636810024397,3.7901432345573527,2.945189725965125,1,0,0,0,0,0,-0.28122607929296983,0.1212282421387233,-0.1409833275937236,-0.15173446963538217,-0.18248241783444302,0.06315740708732327,0.0591773359084453
99.0,0.16947674508627106,0.6480022668657803,10.514636162449955,-0.0015933342393710907,0.020579791959392454,-0.06822263224918676,0.07270386467928991,-0.4081979982033774,0.32913928844857654,52.351789255264144,4.922490261987207,4.644904919936993,3.4669186298888417,314.1356033973784,3.7901089271668975,2.8650461369443376,1,0,0,0,0,0,-0.27889207702744817,0.09613268322637057,-0.07780602342587134,-0.0011466743355388886,0.08648710532962692,0.031587594265534064,0.03168218966663977
99.5,-0.6164368632222771,0.5704724766190093,10.228362123961103,-0.015787223313938215,-0.005318416153541828,0.07592408104275472,-0.4806380976650043,0.29503356982227075,-0.3799232807737579,52.351800699356026,4.92247173241291,4.753086781227278,3.4726191022795025,314.2341153933407,3.79009758865004,2.7941682587861925,1,0,0,0,0,0,-0.2547341654264709,0.09279366545091673,-0.04223036327756243,0.06845936435522079,-0.09695195204794545,0.0150005387565321,0.11843863524033249
100.0,-1.1171191087550516,0.2316184732261422,10.5247584251754,0.040207920269932376,0.04500251277635331,-0.09216546364205522,-0.6176176457605864,0.8658109044061988,-0.6689605978302577,52.35181214344785,4.922453158128863,4.810743321844475,3.463717706278914,314.376960740645,3.790093841295233,2.7263630966919403,1,0,0,0,0,0,-0.23747641526259575,0.04306134182252485,0.010023604777171295,0.09012731197454762,-0.015869977804144984,-0.12854708504687135,0.14091644228152064
100.5,-0.6513999939391556,0.00010048713199833914,9.966842280641174,-0.03912259147968772,0.017826466158962096,-0.16216025964617536,-0.662493756806734,1.0492537917150118,-0.7657864008287522,52.35182107647611,4.922435522465633,4.91488391033395,3.394082961440517,315.3440597317664,3.7900926028027366,2.732889483262337,1,0,0,0,0,0,-0.24283111450412545,0.049773380447608415,-0.007835048939711741,0.1271291045329577,-0.05589335591135084,-0.15113403514225496,0.15458996379840784
101.0,-0.4697314214274688,0.6557566998997211,9.501146828005439,0.01387157831905949,-0.11446788313669208,0.18824859342732897,-1.0926926551166098,0.4382356396905971,-0.41536394747602295,52.35183166243766,4.922417881928732,5.0316616117009385,3.306555730031872,316.4256109410436,3.790092193483699,2.7640657073354107,1,0,0,0,0,0,-0.25202854018661686,0.09947655545159015,-0.047946766254518214,0.08795034078665434,-0.3015239477924272,0.13326537318434484,0.1611226698984589
101.5,0.4449006776372917,0.4656728416631543,9.63592712870174,-0.01099705441418334,-0.006023881470599748,-0.014268442216794935,-0.1353138362550289,0.15243047900789702,-0.25008940611358355,52.351842813272235,4.92239960408103,5.139385654818573,3.3759975814323457,316.23133785019286,3.7900920582046598,2.781430340772727,1,0,0,0,0,0,-0.26457111117154597,0.06362812488424435,-0.07056772212691152,0.09967572980176953,-0.02938186595021563,0.008135070731479899,0.08192756551952891
102.0,0.09259638088423727,0.3554346862312528,9.579434383532147,0.032548580316167725,0.059418502295743664,-0.03275924661531879,-0.2874875006335184,-0.9479691257836775,1.3267621171460249,52.351854157146384,4.922381113731485,5.244648445894181,3.49168366701142,315.8598831555447,3.790092013495236,2.7942149025330303,1,0,0,0,0,0,-0.27954741685219636,0.03810556480299758,-0.07841134897241073,-0.0354408060210821,0.11324829824772101,0.16592352151685957,-0.0016658307545215773
102.5,0.9758000697631966,-1.08901901110734,10.257013991128357,-0.036016859398234666,-0.010114356620242723,0.028873668441059756,-0.3373413828801086,-1.3016280194809726,1.8549981127741098,52.35186556698982,4.922362552526351,5.2299799495100805,3.3635252901884725,315.89442429626865,3.79009199871887,2.8361048798986253,1,0,0,0,0,0,-0.28334086848529744,-0.013757963813391755,-0.13505598960180376,-0.2656842740726002,-0.02465070351287164,0.12553555279098894,-0.04675296767756884
103.0,0.5830592593122013,-1.259709532958639,11.22129592655988,-0.021997485102304738,-0.018343555629275587,-0.04338812422583408,-0.05561798533138318,-1.229476532532378,1.8170747545095938,52.351874488314046,4.922344285538342,5.182707933307453,3.163528560100845,315.9853402243762,3.790091993835314,2.8876468612391393,1,0,0,0,0,0,-0.291659963173844,-0.007150467901731183,-0.08021420880662083,-0.3504227633252822,0.03503986711910946,0.04848936343235099,-0.029568439526326
103.5,0.23583033271390752,0.9222416981800685,7.9194710338597165,0.023295674506934393,0.053250344170483604,-0.06385093151913002,0.10512152167137406,-0.6925101035871578,0.6414772658866712,52.35188507027586,4.922325798809802,5.209992487196889,3.3162260191046955,315.9549176993861,3.7900919922213094,2.8986595095338057,1,0,0,0,0,0,-0.299565497472479,0.1499582789325272,-0.04688506526451659,0.13770504360295543,0.1701137814548666,0.19161937462587617,0.05606302779693523
104.0,0.06972522986573126,1.0430685535121917,8.097298611887648,0.029689721928896434,-0.03938436019154222,-0.038632799109000165,-0.051484236459347216,-0.7400066549050709,0.3679170768146994,52.35189621974357,4.922307238812037,5.257545368576885,3.5728295848592033,315.9076203730172,3.790091991687884,2.896231569072784,1,0,0,0,0,0,-0.28946972729140863,0.15339984649867475,-0.09276897014327437,0.11978061367760652,0.07934591984193347,0.23376891540792205,0.07914791120241085
104.5,0.003723835307380255,0.21846662818041895,9.768262905785004,-0.025822329205614565,-0.0031263417614770805,0.08980048924063819,0.25666406176610856,-1.2878368372044418,0.8177070272949938,52.351907563150604,4.922288654383735,5.1587268691828605,3.5919953306883166,317.19276950462483,3.7900919915115883,2.8398365199896642,1,0,0,0,0,0,-0.2857202216124216,0.058911033218548986,-0.09364934263504385,-0.0824620023131051,0.06621609069556571,0.17999213564153746,0.0076486882661498945
105.0,0.014859513236054379,-0.8401906233055348,11.238237147648293,0.0069011360928947565,0.018787088438901152,-0.07368198177393442,0.3576170685624053,-1.4639047086961623,0.9683840180013332,52.35192148389797,4.922270379652306,5.020117413868268,3.5412103349310904,318.6629362625825,3.790091991453323,2.7655446165185444,1,0,0,0,0,0,-0.27476121318569796,-0.054833968021413756,-0.07294167089973097,-0.2563294180103888,0.1411306127527671,0.02170598788779203,-0.05401836764516279
105.5,0.7430368474409207,0.006040318410611145,10.728681272128108,0.02517571992665745,-0.07307721591626751,-0.052485597924132606,0.29290233512002417,-0.48151448864356605,0.04174964741482279,52.351933774361434,4.922253479556206,5.082126616939055,3.4169128538140643,319.5129354357845,3.7900919914340663,2.671295232137552,1,0,0,0,0,0,-0.2569671729917574,-0.048522906404731836,-0.07875983426915097,-0.04986579772248352,-0.004050452917761942,0.003462787173594197,-0.005450722690900477
106.0,0.8808224188645886,0.6726154976378496,9.695730358127287,-0.04015690407249938,-0.0283881294495857,0.1349020137680425,-0.1391104330474246,-0.815697972877178,0.5830429989703073,52.35194550769208,4.922237037811885,5.198674335714775,3.2709580595039456,320.2768208790247,3.790091991427702,2.570427502645678,1,0,0,0,0,0,-0.2595239117222622,-0.05208672405611031,-0.07003540184466638,0.0570199494493525,-0.09541382454316043,0.19323530519488236,-0.03340588006598036
106.5,1.1573472176199415,-0.18090029959489418,10.451769685321947,0.04128944577771266,-0.014062237425788361,0.08462928836937827,-0.8290013094539128,-1.4340693162175313,1.3890746675840133,52.351957050628286,4.922221066741048,5.147655120522733,3.2138508738859417,320.210677519765,3.790091991425599,2.5301664227689136,1,0,0,0,0,0,-0.2537746334492964,-0.1354337461657296,-0.09842911629865325,-0.1350706030479216,-0.12272170593878784,0.20880596136047797,-0.11061259042448579
107.0,1.4571014292494673,0.3013273181387079,10.004893439663375,-0.0036214289845517833,0.041791209502695714,-0.039566420702906446,-1.0550176747418063,-1.6328085053517205,1.659090540795577,52.35196852849915,4.922204934766435,5.051082903047961,3.182918840400051,320.0292537492962,3.790091991424904,2.510003857578371,1,0,0,0,0,0,-0.26302279570470233,-0.12283212817942862,-0.10952207834508654,-0.05171634112329329,-0.054137157806119635,0.24866903599600745,-0.14363603809874992
107.5,1.056890774187836,-0.6488059038252827,11.070833660815829,0.01772620110943638,0.01746921606477572,0.09283352627807212,-0.9290798443719486,-1.4419572200137656,1.149840522237639,52.3519799841346,4.922188749140842,5.095254515655792,3.2478722875089296,319.70265624349054,3.790091991424674,2.5033175019529152,1,0,0,0,0,0,-0.24388425557753549,-0.1727985599696118,-0.1007078788272783,-0.18876397683090906,-0.1450628839537917,0.13205332143115608,-0.11817563229386349
108.0,0.2721234744019876,-0.5399040695782289,11.419676863759328,0.029664415112014765,-0.056762680852052286,0.10688251269180765,-0.68085061531641,-0.5921832057962872,0.22371442387178297,52.35199143217132,4.922172227783252,5.177687919592258,3.341074295032374,319.35590055439764,3.790091991424598,2.5011001575263716,1,0,0,0,0,0,-0.2259108405379934,-0.1542979739420943,-0.06006351855492464,-0.13876898531274667,-0.19954826247304155,0.03557971081588002,-0.02136928902769044
108.5,1.0144231358965112,0.8769566571544285,9.455782589501672,-0.016907251824029884,0.13333625272137184,0.006817409292206061,1.176892602141634,0.6734329521498721,-1.4335337654595819,52.352002877611255,4.92215464095218,5.1621918183548425,3.308573876451311,317.4993693349051,3.790091991424573,2.5003648367355953,1,0,0,0,0,0,-0.22939521393647602,-0.06827321336781181,0.008316754456744397,0.34309798159621924,0.1480001853835114,-0.17263123722035129,0.016778780500727196
109.0,0.2872301358212084,0.7173444108791796,9.316152724739425,0.0120155955469059,0.10762247595739761,-0.219524262503767,1.785511130096637,1.0801910137809818,-1.988702171857581,52.35201432216376,4.922137016697639,5.120073765587862,3.239040608307994,315.4331710777372,3.7900919914245645,2.5001209879862194,1,0,0,0,0,0,-0.21874235278807214,-0.0635184119833486,0.09644121816115629,0.3766526311779745,0.30295491371864985,-0.29356013998500924,0.06165244095443449
109.5,0.3845336066608708,-0.23105239890264895,10.532588976826545,-0.04516644826368581,-0.1261328534401246,-0.06460908395136616,1.575617690032832,0.9557834277956442,-1.8456743618604712,52.352025766413,4.922119062121922,5.29297547720698,3.197393839980853,315.5768401291706,3.790091991424562,2.5000401223105606,1,0,0,0,0,0,-0.20538976936550854,-0.1091326105699977,0.05425999180467347,0.13427215567188433,-0.004125258485960754,-0.2525454132541283,0.0891062839085286
110.0,0.3034457990367498,0.8387523649443045,8.254984049112913,0.04514341366906874,0.03700532681745258,-0.0788383319590691,1.2258449932318016,0.21886569395628264,-0.8370311172530167,52.352037210558606,4.922100997405504,5.5243303219233955,3.163962637450761,316.0273615884726,3.790091991424561,2.5000133054516818,1,0,0,0,0,0,-0.22968946463847303,-0.057027876109381224,0.07522048916737982,0.3076874270039825,0.20176302305197039,-0.01554249251736082,0.03974328177297708
110.5,-0.6956823372773497,1.4114033832032797,7.594263644610478,0.00660723378315195,0.026853254546455478,-0.0954856475905998,0.41570269804263094,-0.9784091962068328,0.49637208630777496,52.352046143605236,4.922083213807176,5.761176515693241,3.1999639610110657,316.21908541413535,3.7900919914245605,2.500004412384082,1,0,0,0,0,0,-0.24834289375830348,-0.028577919479907725,0.08600776747587291,0.2508176213519021,0.20915348218434437,0.2828158113426273,0.021346278718399267
111.0,0.045089386870017845,0.9085769926823272,8.07324756174456,0.019742967096759413,-0.0033700204552826914,-0.09221186375903566,0.5653408818917448,-2.0108884795600037,1.6944274055291704,52.35205672957307,4.922065841786383,5.999515194621552,3.2564207802494707,316.3748737441582,3.7900919914245605,2.5000014632448226,1,0,0,0,0,0,-0.25769444975520467,-0.09322316478349407,0.02364289360190401,0.062210122510840994,0.24518024335110938,0.38235605060826744,-0.07888208559203483
111.5,-0.2285595884975224,1.0492363050192275,8.006088663880302,-0.01020082843755507,-0.09683158294309001,0.10489204465629322,0.6143641108957634,-2.3427183707432344,2.0957688983909843,52.35206788040979,4.922048289157145,6.088645171067916,3.294215131561991,318.8077259658979,3.7900919914245605,2.500000485244569,1,0,0,0,0,0,-0.26478779175399136,-0.08305339613619721,0.01574779313394078,0.004452989373473378,0.12296098190820566,0.5292014936084957,-0.07076129254192334
112.0,0.791433174668982,0.2686660103569145,9.48176907766967,0.00920831887161248,0.050938868401906326,-0.03239571994364161,0.3699730939386692,-1.051727701020263,1.1043138520834237,52.35207922428467,4.922030676306698,6.137212513763672,3.3265113840026164,321.5567349360172,3.7900919914245605,2.5000001609179052,1,0,0,0,0,0,-0.2563672754547736,-0.14498865343139905,-0.035746862060536164,0.03396389414072601,0.13840982509158142,0.1464591640204284,-0.05748347009619886
112.5,-0.2546965204094842,0.629334222512093,9.065435824851635,0.007859695698605484,0.017972703073538904,-0.18558418211354483,0.6707308209220159,-0.4551016734637978,0.3251717866864505,52.352090634128366,4.922014632590751,6.197752254393542,3.230217287586915,322.2829026840532,3.7900919914245605,2.500000053363961,1,0,0,0,0,0,-0.2539596354224606,-0.10376482201163187,0.061442931977956985,0.14438522451556032,0.21611702171863012,0.08145221715873284,0.03291850927168216
113.0,0.02302358849081243,-0.7162361998838864,10.958538924240372,0.005216198637487636,-0.08456032992762202,0.11995395710908296,1.1384602985423138,-0.18493964156719445,-0.2982305258534813,52.352102066516224,4.921998794236576,6.261546711299608,3.096039370369939,322.72818764002466,3.7900919914245605,2.500000017696678,1,0,0,0,0,0,-0.23452738887274205,-0.17848510634847095,0.05606618149890388,-0.08982638151385086,-0.015067812487575702,-0.06399614017770634,0.049936560674200256
113.5,0.12747396708848113,-0.19476434664021536,10.253062324652694,-0.0027601192610203894,-0.006982098589387961,0.010676928168487101,1.2916939766283206,-0.09811190653028189,-0.5070666378043753,52.35211350660832,4.921983977885863,6.326826291185185,3.081198385266181,323.86644846548364,3.7900919914245605,2.5000000058686127,1,0,0,0,0,0,-0.24515785251843472,-0.15273175085701832,0.07138757813420403,0.04525005798443078,0.1121512323741387,-0.07930198119968655,0.0504861937251222
114.0,0.43179707377792054,0.18678820652553307,10.197698571032074,0.006637801384822926,0.03009624023119674,-0.05711396753733086,1.027501508810455,-0.12978236808708402,-0.22840082017902003,52.35212494933326,4.921969184464186,6.392509257012793,3.1015147606895868,325.100932857543,3.7900919914245605,2.500000001946163,1,0,0,0,0,0,-0.2544138642718234,-0.14753287028524642,0.046246063037693325,0.0874757761401021,0.1475145473743213,-0.055692747648881984,0.03272309788933547
114.5,-0.6301622294384978,0.658714698459091,9.013259811141737,0.012735866157772884,0.032959534525686014,0.04092154253913133,0.35231861741989123,-0.45068353421344665,0.14664281637219911,52.352136392957945,4.921955670059351,6.650274330678275,3.107500112746991,326.30573171983593,3.7900919914245605,2.5193608339938365,1,0,0,0,0,0,-0.26473549194863893,-0.090136091452658,0.07959569442585529,0.13379086074058394,0.09543916481151517,0.1406733773139238,0.08541516508613381
115.0,-0.27270953429207995,0.1645827781924975,9.664208970902665,-0.01247387896896699,-0.04223950376127635,-0.02305283874627076,0.680218403473306,0.3967850425356063,-0.6520064797578593,52.35215034795367,4.921942582123729,6.960256897386644,3.109263441023047,327.50640858066197,3.7900919914245605,2.545142309757114,1,0,0,0,0,0,-0.2567808947907731,-0.10527689501323009,0.06522716836143985,0.12335110376260457,0.032912825706527676,-0.038607327348218756,0.15049370233775944
115.5,-0.11933292730216097,0.4440954036656363,9.178438849822529,0.0007022031629156603,0.007239952411056183,0.053449816618933,0.7876422299898987,0.6691540964603941,-0.9195493015619348,52.35216265012116,4.921929000702199,7.167950349835295,3.197957020646471,327.45784315822743,3.7900919914245605,2.5343310285561538,1,0,0,0,0,0,-0.252953146637864,-0.09696384105870523,0.054408545926976186,0.22032790398469793,0.0464265533854262,-0.04756107757756692,0.16641431333797937
116.0,0.13645545181597438,0.46415869310830316,9.672853838000234,0.033903161828744616,0.04147400245372284,-0.13034521729374307,0.8221061292157478,0.6484344988724949,-1.0677025831358058,52.352174387451534,4.9219149368922315,7.347836336570659,3.3122608849741817,327.23581347341934,3.7900919914245605,2.5113849336007013,1,0,0,0,0,0,-0.24807434915185975,-0.13442985856943312,0.032572755163315995,0.22421717413407197,0.153838454456978,-0.12887501114581035,0.14507106992830565
116.5,0.19856832989950346,0.09130501217227,9.749458844980989,-0.014063497137441157,-0.07327655883465464,0.04176049081775701,0.09553918944610518,0.06498692542946127,-0.37959507983153284,52.35218593175461,4.921900394394115,7.3027045956968015,3.2895042713188674,326.8605046208057,3.7900919914245605,2.503775497517657,1,0,0,0,0,0,-0.24628528935726055,-0.14445899939186785,-0.015813828059539292,0.0813420318779774,-0.08681890122005162,0.043201582664026066,0.1290662574634044
117.0,0.004966580002821908,-0.726988957208065,10.690351610485664,0.00884362386312514,0.002144176576873491,0.10329664982539138,-0.2798403724985028,0.1820959665168,-0.22227671459629325,52.35219992115614,4.921885374441653,7.196401758807092,3.226368643356732,326.46393838041666,3.7900919914245605,2.5012520390549273,1,0,0,0,0,0,-0.23908624030639417,-0.18890739843911014,-0.006041023088867973,-0.037667785701825975,-0.12311063837422223,-0.05703238851208577,0.11731522850300946
117.5,-0.44718121951672063,0.045631150897444406,9.898602229561941,-0.0018558963283836077,-0.01171458452744513,0.025377639881118172,-0.5759383785791923,0.5668134945695841,-0.38988231915962523,52.35221223508146,4.921870830974864,7.108867332185533,3.207768427873251,325.11715631560315,3.7900919914245605,2.500415204032775,1,0,0,0,0,0,-0.23797749791799697,-0.12866189236524225,0.02274655840908487,0.10477515914775719,-0.12306879573761373,-0.0053912847669665195,0.16791341300478135
118.0,0.26941031110343894,1.0004608096532572,8.77016108220309,0.02990003228692737,0.0007555500917956776,-0.009911093454301141,-0.6729435679389056,0.690458372997977,-0.44602921193513645,52.352223976429954,4.921856128542287,7.026434781879786,3.202288669023946,323.6384314809299,3.7900919914245605,2.500137690903614,1,0,0,0,0,0,-0.2415952234067138,-0.07842300009512067,-0.008803490475423885,0.28055518650095235,-0.09668566246309498,0.07435417419664052,0.15557380808095023
118.5,0.4495116075586932,0.19221852535801798,9.660868072651315,-0.03743396754320593,0.013972981883539895,0.015285878325947914,-0.19371460578063682,0.23766313532017086,-0.35621602990898565,52.352235522106184,4.921842008790672,7.089583355218019,3.0666496345977494,324.0789606003326,3.7900919914245605,2.508277393840801,1,0,0,0,0,0,-0.2471259724480559,-0.12722325444983865,0.0038000847049342564,0.13320888009323248,-0.07220154389640757,0.005360655162565354,0.1177741559806477
119.0,-0.21846290631974924,-0.14431942921722946,9.778353604217468,0.023545202268722053,0.01583033266133656,-0.03343442548376052,-0.24155744554062436,-0.1598433791733599,0.06662823275849356,52.35224700091342,4.921828083325389,7.192308051762632,2.8926647303188613,324.78598884157276,3.7900919914245605,2.5192084330719586,1,0,0,0,0,0,-0.25356814064232536,-0.14195323565881085,0.06706448435628873,0.030428169049397623,-0.005491614637501738,0.03923423484496342,0.11451465055077086
119.5,0.3170369392534497,-0.07981328238321136,9.849428373221404,0.021823330366081146,-0.010881063147176798,0.04509087681310098,-1.294316089977732,-0.02601334792250251,0.0843245506068127,52.35225845686886,4.921813586956256,7.28283626128153,2.862569272784037,323.93689954090377,3.7900919914245605,2.5146016766378505,1,0,0,0,0,0,-0.24724392798235723,-0.1370267767717997,-0.0003534683715579641,0.030686300096941663,-0.2141718404452744,0.09308478161483323,0.12796618617747108
120.0,0.02758846429642664,-0.22120780233886964,10.14699624229727,-0.02113849453679817,0.08770743211525225,-0.16039759575045273,-1.639212203955167,0.01699846395888891,0.09025271311271205,52.35226739395139,4.92179921807057,7.370048488324067,2.8748648616313495,322.87176091573593,3.7900919914245605,2.50484224114372,1,0,0,0,0,0,-0.2469773127727157,-0.1529730401681702,0.013768395092964993,0.04425314630706641,-0.10934455913482985,0.0025443836511434064,0.1289882798231131
120.5,-0.26524614640044214,-0.012722244822520795,10.13920539689409,-0.009231161021547947,-0.08496606065204368,0.06994256245919775,-1.6224833416252684,-0.2061209184015806,0.1810735504457447,52.35227798129844,4.921785527378096,7.378118673362952,2.8784872315900905,322.98219328751725,3.7900919914245605,2.5016057949970727,1,0,0,0,0,0,-0.2410002008728407,-0.1344879901607757,0.008335530120374177,-0.02231631470119564,-0.30779622915725485,0.16733924489734345,0.15663255274343774
121.0,0.6100130278240137,0.051952269432751136,10.153683902957537,-0.010585043245921858,0.03821738162371453,-0.03492492886222466,-0.17966851608108914,-0.2681542160483825,0.2748093525798332,52.3522891326065,4.921771744976225,7.364673615542993,2.8795544081426687,323.25586025244826,3.7900919914245605,2.500532517381124,1,0,0,0,0,0,-0.2530937845451247,-0.16513520152713088,0.02149073120845449,0.038193024965911385,-0.003675806553500448,0.036145504250101226,0.0751760772963146
121.5,0.00045758390046379827,-0.9712236709850898,11.131458702816348,0.014514854099950684,0.0030731140807546964,-0.014896201754182947,-0.08344914224098857,-0.33157913363432184,0.3258527077179952,52.352297965578906,4.921758249838089,7.288359686343013,2.8657607969524435,323.29386043771564,3.7900919914245605,2.5001765946224244,1,0,0,0,0,0,-0.24270053681620307,-0.21550302872776855,0.05492794717047107,-0.142933229485219,-0.029231296575338957,-0.044468682314544615,0.07918956913333579
122.0,-0.2504955268158884,0.13192959548005045,9.41142160388754,-0.0015883254337093998,-0.03875389995096116,0.026170875802861728,-0.18870067203575708,-0.6768164649951163,0.8085101417583972,52.352308517347396,4.921744850483789,7.1949544027638,2.847589257718699,323.2991369754984,3.7900919914245605,2.5000585627094525,1,0,0,0,0,0,-0.2564801525542555,-0.13749331307891283,0.07005797134768105,0.0003979964283339042,-0.026600272986157882,0.19496129961954592,0.08424646599060007
122.5,0.16270776762001704,0.7382010892013218,8.77060602583247,0.0210866640337886,-0.0534346469301685,0.07312207608414925,-0.22318231111629427,-0.7877727504576063,0.9701975463471252,52.352319656496846,4.921731800910063,7.2786964976607145,2.8246010728635627,323.4721090481405,3.7900919914245605,2.500019420698611,1,0,0,0,0,0,-0.2627649164930295,-0.11129361330210102,0.04929009943183124,0.07529854197831586,-0.03973162191025152,0.2951837995686804,0.07408755450980517
123.0,-0.09500328102782735,0.6403102390575358,9.20929700977854,-0.019910635651445855,0.000146966411184217,0.1575519446089581,-0.1399366745090498,-0.1265987912261416,0.181669795410891,52.35233099637772,4.92171918580836,7.410596401810588,2.8001937009752518,323.6683665816155,3.7900919914245605,2.5000064403361466,1,0,0,0,0,0,-0.2550004021559284,-0.10783594123374575,0.07306792642313764,0.12780161743072957,-0.08198689900304679,0.16569233992910087,0.13247361661988905
123.5,-0.07492451854306775,0.05283999230249714,10.034636826699753,-0.010927799043290913,0.1119712463182948,-0.1194760904397219,0.3236625671524498,0.03926347873780364,-0.09784932766404564,52.352339893792944,4.921706397732041,7.376573101971969,2.7859491910907352,323.17892612761096,3.7900919914245605,2.500002135758889,1,0,0,0,0,0,-0.25365726902320473,-0.15720277141729463,0.10634984761165564,0.09675595322384947,0.14869614254178984,-0.06374009158738304,0.10523904033492534
124.0,0.16240789582430146,0.265616404156059,9.25230905668104,0.003001225110775659,-0.049486825820790004,-0.09851030893099912,-0.10086357306912819,1.46928035299697,-1.7937803073890528,52.35235046758411,4.9216935519799,7.29744295616095,2.774698734315389,322.5942726815368,3.7900919914245605,2.5000007082652096,1,0,0,0,0,0,-0.22784094922988288,-0.09764611495537964,0.08704752357446471,0.27442327394602417,-0.11811848756830208,-0.15094514273362816,0.23947539231348525
124.5,0.5333854695000745,0.312005058860109,9.252031167843638,0.015154607412470149,-0.028599274674720416,0.0078044573380239846,-0.23994332968565923,1.9288753796734404,-2.3619072212913084,52.352361614259586,4.921680369153736,7.196406731988276,2.8137077908428783,322.4700435789557,3.7900919914245605,2.500000234876516,1,0,0,0,0,0,-0.21986783161094828,-0.08784745777004906,0.058276317581999165,0.3363709611903306,-0.20368544834198693,-0.20766916398187946,0.2576543184277502
125.0,0.7317638780150995,0.33426550427034263,9.082979052292654,-0.005232134481033372,0.016686654848506285,0.06911826880830063,-0.2002863174346324,0.9005043499759071,-1.2050772036968147,52.3523729567124,4.921667391778109,7.089414956797484,2.8675238339447002,322.40972068580476,3.7900919914245605,2.500000077890283,1,0,0,0,0,0,-0.23534995174888623,-0.10276365857306294,0.030795978290511058,0.25206058427596056,-0.1355017340557225,-0.05730666703775337,0.16484185758852113
125.5,1.0711243739342242,-0.44241297087859077,9.588335087793405,-0.032423524980334184,0.001861305040668254,-0.04408576324606553,0.04439207169012377,0.1880587967326074,-0.3311667776056534,52.35238185500656,4.921654482906918,7.0119365770056685,2.893959228556185,322.831916725233,3.7900919914245605,2.5000000258301522,1,0,0,0,0,0,-0.24324672698035502,-0.1606236813691591,0.007314824472278021,0.08210424761704255,-0.05526711364543484,-0.05621342175062952,0.08355035299293835
126.0,0.1351874938308626,-1.5127582965813309,9.92996301625571,-0.013123747869437888,-0.012634710849447837,0.0810662017380617,-0.7654888489704095,-0.8631248588498089,-0.5374504124996193,52.352392429098096,4.921641596877517,6.942481810011726,2.912328253031407,323.3211132111259,3.7900919914245605,2.500000008565854,0,1,0,0,0,0,-0.2360761489650837,-0.19578677311785692,0.01225626000093293,-0.12833761447195344,-0.19377306418698506,0.016989522592049985,0.07780029639753261
126.5,-0.1576674571440076,-1.6592016800008196,9.567499586271733,-0.021267938988619117,0.02799898800718212,-0.0606948429225842,-1.0308153640232836,-1.2009661731207013,-0.6065542181862467,52.35240106481266,4.921632214735984,6.954824848182498,2.0959573227346997,323.51820728005515,3.7900919914245605,2.5000000028406277,0,1,0,0,0,0,-0.2546694589488358,-0.18214843658472618,0.1544354953220552,-0.14249663055796208,-0.14478599141031573,0.026133064132322907,0.08642346051717309
127.0,-0.25668321074083855,-1.920991344061139,9.82038333646354,0.023013515621104083,0.02001280691190925,0.01615832584522589,-0.725355046646551,-1.5492138983178563,-0.40065256159666507,52.35240652704321,4.921624000913938,6.989404755633071,1.0336659687712864,323.6747675783661,3.7900919914245605,2.5000000009420154,0,0,1,0,0,0,-0.2732242178468072,-0.18751788635410774,0.3328984659776299,-0.24743531477628503,-0.1481615005116551,0.06009317980286632,0.07961494534091795
