,Acceleration x (m/s^2),Acceleration y (m/s^2),Acceleration z (m/s^2),Gyroscope x (rad/s),Gyroscope y (rad/s),Gyroscope z (rad/s),Linear Acceleration x (m/s^2),Linear Acceleration y (m/s^2),Linear Acceleration z (m/s^2),labelnormal,labelturnright,labelturnleft,labelbrake,labelstop,labelaccelerate,Latitude (°),Longitude (°),Height (m),Velocity (m/s),Direction (°),Horizontal Accuracy (m),Vertical Accuracy (m)
0.003973,-0.5905787499999999,7.114086,6.891703250000001,-0.0029779999999999997,0.0458135,0.064597,-0.0073585000000000005,0.061712,0.0647575,1,0,0,0,0,0,,,,,,,
0.253973,-1.0176975,7.093522500000001,6.7582284999999995,0.0007639999999999999,0.031688,0.0465005,0.07744999999999999,0.206842,-0.08026649999999999,1,0,0,0,0,0,,,,,,,
0.503973,-0.03369866666666669,8.263413333333334,6.076174333333333,-0.015169333333333333,0.0732,0.17643266666666668,-0.12892800000000001,0.37837499999999996,-0.22423033333333334,1,0,0,0,0,0,52.339888,4.9528989999999995,,0.4451346666666667,0.36118033333333327,38.0,0.0
0.753973,0.27771700000000005,6.548258,7.593024000000001,0.034131,0.15652950000000002,0.178062,0.321369,0.23618550000000002,-0.146721,1,0,0,0,0,0,52.339764,4.952968,4.225314,0.0,,3.790092,2.5
1.003973,-0.06879366666666649,8.739884333333334,5.2787663333333334,0.017409,-0.06021933333333331,-0.09880466666666665,0.18439399999999995,-0.2822765,0.5837055,1,0,0,0,0,0,,,,,,,
1.253973,-2.5148569999999997,6.0749285,6.473333,0.032757,-0.329781,-0.4766134999999999,0.783662,0.3015776666666667,-0.17944466666666667,1,0,0,0,0,0,,,,,,,
1.503973,1.0021936666666666,7.528318666666666,7.653244000000001,-0.067499,0.467222,0.981708,-1.9363235000000003,-0.92509,0.6674565,1,0,0,0,0,0,,,,,,,
1.753973,-0.8253745000000001,7.872835499999999,5.8211395,-0.023619666666666664,0.13061966666666666,0.16289266666666666,-0.40017699999999995,0.14829599999999996,0.004198666666666628,1,0,0,0,0,0,,,,,,,
2.003973,0.8792626666666666,7.408079333333333,7.227720333333334,0.0378725,0.11888599999999999,0.0006110000000000004,0.91912,-0.399212,1.0284915000000001,1,0,0,0,0,0,52.339763,4.952954,4.2984860000000005,1.67,272.299988,3.790092,2.5
2.253973,0.835394,5.7607205,9.612268,0.06760033333333333,-0.3508303333333333,-0.6225046666666667,1.5531185,0.10170799999999999,0.22059299999999998,1,0,0,0,0,0,,,,,,,
2.503973,-0.30917266666666665,7.2037916666666675,6.761020333333334,-0.0523035,0.05787749999999999,0.1365245,-0.2550303333333334,-0.5273586666666668,0.3271563333333333,1,0,0,0,0,0,,,,,,,
2.753973,-0.6834499999999999,6.976723,7.345367,-0.031535,-0.019929000000000002,-0.05291449999999999,0.4991365,-0.01435599999999998,0.4076825,1,0,0,0,0,0,52.339762,4.952932,4.418956,1.52,281.700012,3.790092,2.5
3.003973,1.1657033333333333,6.410870666666665,7.344370333333333,0.047595,0.03273133333333333,-0.20672100000000002,0.16240099999999996,-0.33859800000000007,0.7992199999999999,1,0,0,0,0,0,,,,,,,
3.253973,-1.999652,6.7121665,7.1403325,0.0614665,-0.252127,-0.387277,1.1968853333333334,-0.3964303333333334,0.574707,1,0,0,0,0,0,,,,,,,
3.503973,-0.39591266666666675,7.2941210000000005,6.828617,0.014431500000000003,-0.1624855,0.070553,-0.636113,-0.07635349999999999,0.00887849999999997,1,0,0,0,0,0,,,,,,,
3.753973,0.275474,6.898508,7.5845,-0.024892,-0.061186333333333336,0.15439166666666668,-0.01607266666666666,-0.19264266666666663,0.30528400000000006,1,0,0,0,0,0,52.339763,4.952897,4.435233,3.08,271.100006,3.790092,2.5
4.003973,-1.2201403333333334,7.372087333333333,8.430313,-0.006872,-0.1099525,0.12362049999999998,-0.32915950000000005,-0.31253,0.589345,1,0,0,0,0,0,,,,,,,
4.253973,-2.0226830000000002,8.532656,7.4283684999999995,-0.050955,0.28750533333333333,0.5284846666666666,-0.670803,-0.610639,-0.34743300000000005,1,0,0,0,0,0,,,,,,,
4.503973,1.6578273333333333,8.003094333333333,6.369694,0.059099500000000006,-0.016340500000000004,-0.3448235,0.3905933333333333,0.332997,0.566002,1,0,0,0,0,0,,,,,,,
4.753973,-0.9646064999999999,8.051399499999999,5.882605,-0.010308000000000001,0.1603475,0.0820825,-0.8198285,-0.631479,0.6389495000000001,1,0,0,0,0,0,52.339764,4.95285,4.3581199999999995,3.2,271.600006,3.790092,2.5
5.003973,0.7618150000000002,7.380661333333333,6.429314999999999,0.06612433333333334,-0.116977,-0.374144,0.9335446666666666,0.08712166666666665,0.055299000000000015,1,0,0,0,0,0,,,,,,,
5.253973,-1.8708879999999999,5.5817075,6.8075805,-0.030008,-0.013439,0.261137,-0.8891635,-0.31903349999999997,0.19850199999999998,1,0,0,0,0,0,,,,,,,
5.503973,-0.03359966666666664,6.306384333333333,7.494220666666667,0.007941333333333333,0.036650666666666665,0.09569933333333332,-0.4231315,-0.33430249999999995,0.5126525,1,0,0,0,0,0,,,,,,,
5.753973,-1.5550354999999998,7.1694949999999995,5.8305605,-0.0325275,0.0663535,0.099721,0.12329366666666668,-0.05452033333333333,0.197989,1,0,0,0,0,0,,,,,,,
6.003973,-0.6283153333333333,6.580262333333334,7.718846999999999,0.019242000000000002,0.079334,-0.032680499999999994,0.36855249999999995,-0.192398,0.5043705,1,0,0,0,0,0,52.339765,4.952799,4.232971,3.53,272.399994,3.790092,2.5
6.253973,-0.9662515,7.550402,8.418398,0.022601333333333334,0.04988600000000001,-0.043268333333333325,0.4448435,0.0211355,0.33958499999999997,1,0,0,0,0,0,,,,,,,
6.503973,0.5361916666666667,6.884150666666667,7.029714333333334,-0.003970499999999998,-0.057801500000000006,-0.1290415,-0.017828333333333335,0.016512666666666658,0.073405,1,0,0,0,0,0,,,,,,,
6.753973,-0.817448,6.8262745,7.1379395,0.013896666666666668,-0.13988399999999998,-0.13586266666666666,0.3852835,-0.6846075,0.640926,1,0,0,0,0,0,52.339766,4.952746,3.950044,3.74,270.5,3.790092,2.5
7.003973,-1.4517453333333332,6.378766666666667,8.758827333333334,0.0185545,-0.051006,0.1123195,0.0775696666666666,-0.09044700000000001,0.28496800000000005,1,0,0,0,0,0,,,,,,,
7.253973,-0.8169995,6.1579295,8.319844,-0.0558165,0.048104,0.2959555,-0.557553,-0.265086,0.2959115,1,0,0,0,0,0,,,,,,,
7.503973,-1.8348963333333332,8.173383666666668,6.866404333333333,0.031662,0.10750900000000001,0.10908733333333336,0.3498765,-0.4038014999999999,0.63962,1,0,0,0,0,0,,,,,,,
7.753973,-0.8982055,7.665706,7.085746,-0.020005500000000002,0.068644,0.024433500000000004,-0.4851023333333333,0.15708233333333335,0.05998066666666666,1,0,0,0,0,0,52.339765,4.952691000000001,3.943663,3.85,269.899994,3.790092,2.5
8.003973,1.1666006666666668,5.9713883333333335,6.728317999999999,0.06116100000000001,0.017332999999999994,-0.1433965,0.510512,-0.5186215,0.575984,1,0,0,0,0,0,,,,,,,
8.253973,0.06759750000000009,7.195068,6.4111199999999995,-0.013286000000000001,0.02728433333333333,-0.00651566666666666,0.15673433333333334,0.014433000000000001,0.17041366666666669,1,0,0,0,0,0,,,,,,,
8.503973,-1.0296116666666666,7.173183666666667,5.709673333333334,0.0226775,-0.1294235,-0.228533,0.9458365,0.040522999999999976,0.20322099999999998,1,0,0,0,0,0,,,,,,,
8.753973,-2.405086,8.572885000000001,3.9430725,-0.0003053333333333357,0.07951166666666667,0.16355433333333333,-1.0773424999999999,-0.3387629999999999,0.2828195,1,0,0,0,0,0,52.339764,4.952635,3.661464,3.81,269.0,3.790092,2.5
9.003973,-0.07567266666666668,6.405685666666667,5.692026666666667,0.0025194999999999983,-0.0256555,0.0545945,0.12805866666666674,-0.15165700000000001,0.35780266666666666,1,0,0,0,0,0,,,,,,,
9.253973,2.0038395,6.4700429999999995,9.1555375,-0.0157295,0.0183255,0.0846785,-0.511122,-0.263586,0.11579,1,0,0,0,0,0,,,,,,,
9.503973,0.1888333333333334,7.468298666666667,6.603093666666666,0.026826666666666665,0.016747333333333336,-0.08597666666666666,0.130132,0.206999,0.13058650000000002,1,0,0,0,0,0,,,,,,,
9.753973,-2.4756739999999997,6.1829045,7.271788000000001,-0.004199499999999999,0.0266485,0.077654,0.3503803333333333,-0.180029,0.2233743333333333,1,0,0,0,0,0,,,,,,,
10.003973,0.24576266666666666,7.272286333333334,5.735097,0.009519,0.05064933333333333,0.05940533333333333,0.089765,-0.04992200000000001,0.161456,1,0,0,0,0,0,52.339760999999996,4.95258,3.619253,3.89,267.0,3.790092,2.5
10.253973,0.9370895,7.1534925000000005,6.9786675,-0.028099,-0.047875,-0.0002289999999999931,-0.16519533333333333,0.03196833333333334,0.20215966666666665,1,0,0,0,0,0,,,,,,,
10.503973,-1.1105686666666668,7.126024999999999,6.459524333333333,0.008094,-0.065666,0.09674300000000001,-0.12912850000000003,-0.456359,0.256318,1,0,0,0,0,0,,,,,,,
10.753973,1.795066,9.0521975,5.7623655,-0.004632333333333333,0.07482866666666667,0.18966799999999998,-0.4704285,0.26477649999999997,0.1362225,1,0,0,0,0,0,,,,,,,
11.003973,0.5093716666666668,6.236294,7.8997046666666675,-0.023746500000000004,0.21410200000000001,0.27167450000000004,-0.5723373333333334,0.01384533333333333,-0.06610166666666666,1,0,0,0,0,0,52.339756,4.952526,3.808668,3.72,265.0,3.790092,2.5
11.253973,-0.45568299999999995,5.938537,7.8850985,0.0629175,0.1189625,0.038483500000000004,0.02707900000000002,0.19658549999999997,0.38554999999999995,1,0,0,0,0,0,,,,,,,
11.503973,-1.971785333333333,7.2346993333333325,6.7234326666666675,0.051871,0.13072133333333333,0.027640666666666664,-0.15113233333333337,-0.13076533333333337,0.5778473333333333,1,0,0,0,0,0,,,,,,,
11.753973,-1.5783654999999999,8.3457165,5.4846485,-0.010766000000000001,0.027335500000000002,0.0166455,-0.20075349999999997,0.14557150000000002,-0.46667899999999995,1,0,0,0,0,0,52.339749,4.952473,3.9375949999999995,3.8,259.899994,3.790092,2.5
12.003973,1.489133,6.523333,7.711170333333333,-0.0054466666666666665,0.13459033333333334,-0.007534000000000002,0.2261395,-0.0463745,0.22867249999999997,1,0,0,0,0,0,,,,,,,
12.253973,0.8464610000000001,6.1989065,8.0023465,0.020845000000000002,0.006796,-0.257701,0.8362286666666666,-0.09771133333333333,0.2938633333333333,1,0,0,0,0,0,,,,,,,
12.503973,-0.7805586666666665,7.414659333333333,5.342175666666667,0.039094,-0.019394500000000002,-0.09307800000000001,0.23886449999999998,-0.26809150000000004,0.24875949999999997,1,0,0,0,0,0,,,,,,,
12.753973,-1.314856,6.4372905,8.6469135,-0.011402333333333332,-0.09417200000000002,-0.039552333333333335,0.43108599999999997,0.3386245,0.038294500000000065,1,0,0,0,0,0,52.33974,4.95242,3.9177150000000003,3.84,255.899994,3.790092,2.5
13.003973,-0.5444666666666667,7.183553,7.995816333333333,0.027564500000000002,-0.091169,-0.03436,0.11619400000000006,-0.08581533333333331,0.08436766666666666,1,0,0,0,0,0,,,,,,,
13.253973,-0.630808,7.184898499999999,7.708329,-0.026164333333333335,-0.04932566666666666,0.029626000000000003,0.2239285,0.096725,0.0609025,1,0,0,0,0,0,,,,,,,
13.503973,0.368096,6.803392666666667,7.5604223333333325,0.0139735,0.112396,0.210055,-0.3066809999999999,-0.2541533333333333,0.4282913333333333,1,0,0,0,0,0,,,,,,,
13.753973,-0.8126625000000001,7.5276705,6.246613,-0.0087045,0.0331385,-0.0142785,0.057102499999999994,0.3105975,-0.22782,1,0,0,0,0,0,,,,,,,
14.003973,-0.9062813333333333,7.7253273333333325,6.233702,0.011198666666666668,-0.020361666666666667,-0.049835,-0.510625,-0.15446949999999998,0.27682,1,0,0,0,0,0,52.339729999999996,4.952367,4.158759,3.79,254.600006,3.790092,2.5
14.253973,-1.237837,6.9876404999999995,6.822087,-0.0423775,-0.01466,0.10865449999999999,0.01187066666666666,0.06988533333333331,-0.10117233333333332,1,0,0,0,0,0,,,,,,,
14.503973,-1.6777676666666668,7.4856463333333325,5.2900323333333334,0.033978,0.0307715,-0.030007500000000003,0.6418325,0.2125475,-0.135885,1,0,0,0,0,0,,,,,,,
14.753973,-0.1191925,8.705687000000001,7.4014489999999995,0.011708000000000001,0.07381066666666668,-0.009977333333333338,0.009632999999999928,0.06487433333333333,0.28251766666666667,1,0,0,0,0,0,52.33972,4.952314,4.227379,3.94,255.19999700000002,3.790092,2.5
15.003973,0.40787666666666667,7.172685333333334,7.592525999999999,-0.0307715,0.028098999999999996,0.043523000000000006,-0.5647645,-0.004451499999999997,-0.09949799999999998,1,0,0,0,0,0,,,,,,,
15.253973,-1.9239784999999998,7.2206415,4.765456,0.013489666666666665,-0.06174633333333333,0.035022000000000005,-0.14783450000000004,0.0777285,-0.064421,1,0,0,0,0,0,,,,,,,
15.503973,-0.1285146666666667,7.893722333333334,6.752944,0.0080175,0.072996,0.05619800000000001,0.1150803333333333,0.09077399999999998,0.10245599999999999,1,0,0,0,0,0,,,,,,,
15.753973,-0.7347460000000001,7.6953175,6.1592744999999995,0.025807999999999998,-0.024281,-0.15301700000000001,0.3403035,-0.07570349999999998,0.31809849999999995,1,0,0,0,0,0,52.33971,4.952259,4.471596,4.07,254.80000299999998,3.790092,2.5
16.003973,-0.6892323333333333,6.835795999999999,7.386245,-0.030338666666666667,0.09432499999999999,0.17882566666666666,-0.5592303333333334,0.035918,0.12125599999999999,1,0,0,0,0,0,,,,,,,
16.253973,-0.35668000000000005,7.5773215,7.2856965,0.045355,-0.0658185,-0.164929,0.13195699999999994,0.3250225,-0.0386155,1,0,0,0,0,0,,,,,,,
16.503973,-0.4075773333333333,6.211667666666667,7.343173666666668,-0.0022396666666666654,-0.003766666666666668,0.23436166666666666,-0.005327000000000082,-0.4909595,0.011853499999999989,1,0,0,0,0,0,,,,,,,
16.753973,1.8843480000000001,6.6145095000000005,8.332706,0.040545,-0.001451000000000001,-0.1821855,0.4179253333333334,0.396671,0.255726,1,0,0,0,0,0,,,,,,,
17.003973,-0.9971093333333334,8.395119000000001,5.4736813333333325,0.0197765,0.16477599999999998,0.291756,-1.064695,-0.690968,0.423416,1,0,0,0,0,0,52.339698999999996,4.952204,4.358206,4.11,252.30000299999998,3.790092,2.5
17.253973,0.46121650000000003,6.936793,7.3543400000000005,-0.0035633333333333337,0.078443,0.012166000000000001,-0.343882,0.4501259999999999,-0.08406349999999999,1,0,0,0,0,0,,,,,,,
17.503973,-0.44077800000000006,7.137889666666666,7.645866000000001,0.030694999999999997,-0.020921500000000003,0.019317999999999995,0.028348666666666595,-0.04422799999999999,0.182732,1,0,0,0,0,0,,,,,,,
17.753973,-1.2503995,6.6231835,9.289236500000001,0.009392000000000001,0.0704005,0.05406000000000001,0.24897549999999996,0.111503,0.08124100000000001,1,0,0,0,0,0,,,,,,,
18.003973,0.7743773333333333,5.891029666666667,9.158827666666667,0.006414,0.12542733333333334,0.05823433333333333,-0.026468000000000002,-0.13121100000000005,0.3595736666666666,1,0,0,0,0,0,52.339686,4.95215,4.433536,4.07,249.399994,3.790092,2.5
18.253973,0.7673485000000001,7.951649,7.0716885000000005,0.037032499999999996,0.1500395,-0.0006869999999999966,-0.12533599999999998,0.055724499999999996,0.020104499999999997,1,0,0,0,0,0,,,,,,,
18.503973,1.5659030000000003,6.5575306666666675,8.310871333333333,-0.022346666666666664,-0.10241866666666667,-0.10226600000000002,0.6111285,0.21133400000000002,-0.10651549999999999,1,0,0,0,0,0,,,,,,,
18.753973,-0.8524430000000001,6.854091,6.905685999999999,0.012217000000000002,0.007406499999999999,0.15492599999999998,-0.37534799999999996,-0.25083833333333333,0.3530123333333333,1,0,0,0,0,0,52.339671,4.952097,4.650404,3.98,246.0,3.790092,2.5
19.003973,0.76341,7.181957333333334,8.259326,0.0005344999999999994,0.077654,0.035657999999999995,0.775529,0.21642250000000002,0.06069150000000001,1,0,0,0,0,0,,,,,,,
19.253973,2.5914265,8.161769,6.432356,0.018783666666666667,0.06077933333333333,-0.022703,-0.03058000000000005,-0.007703333333333312,0.09534066666666667,1,0,0,0,0,0,,,,,,,
19.503973,-0.8048856666666665,7.743971999999999,6.867899666666666,-0.016264,0.09399450000000001,0.070706,-0.06362999999999999,0.085186,0.248549,1,0,0,0,0,0,,,,,,,
19.753973,-1.3648060000000002,7.018447999999999,8.019096,0.014711333333333333,-0.14024033333333333,-0.040366666666666655,0.455656,0.012324000000000002,0.07451200000000002,1,0,0,0,0,0,52.339655,4.952047,4.690086,3.89,242.69999700000002,3.790092,2.5
20.003973,0.23329999999999998,7.499106333333333,7.7037923333333325,-0.0492495,0.032375,0.21547650000000002,-0.132421,-0.0638003333333333,0.07669766666666668,1,0,0,0,0,0,,,,,,,
20.253973,1.3025930000000001,7.150801,7.400102499999999,0.012370000000000003,0.1159845,0.0829225,0.758165,0.239691,-0.132226,1,0,0,0,0,0,,,,,,,
20.503973,0.30368899999999993,6.636194333333333,7.083154,0.017968999999999995,0.12013333333333333,-0.0023416666666666724,-0.36230149999999994,-0.3235285,0.6904405,1,0,0,0,0,0,,,,,,,
20.753973,-1.129562,5.7209395,8.722287000000001,-0.0071775,0.1311795,0.0758215,-0.08876800000000007,0.32700466666666667,-0.332924,1,0,0,0,0,0,52.339638,4.952,4.956208,3.78,240.19999700000002,3.790092,2.5
21.003973,-1.6010973333333334,7.056833,6.157829333333335,-0.008705,0.061771999999999994,-0.040545000000000005,0.11694300000000002,0.023492500000000013,0.2341985,1,0,0,0,0,0,,,,,,,
21.253973,-0.9466604999999999,7.645517,5.631658,0.025349999999999998,-0.14639966666666668,-0.17877466666666667,0.7415600000000001,0.09215433333333334,-0.032398666666666666,1,0,0,0,0,0,,,,,,,
21.503973,0.6132606666666666,7.950951333333333,5.276672333333333,0.017791,0.0178675,-0.0022910000000000014,0.5497150000000001,0.012731,0.36015149999999996,1,0,0,0,0,0,,,,,,,
21.753973,-0.5558825000000001,7.1636625,7.0972615,-0.019954333333333334,0.08490766666666667,0.18457766666666667,-0.448537,-0.217831,0.0678185,1,0,0,0,0,0,52.339619,4.951954,4.957315,3.9,238.100006,3.790092,2.5
22.003973,-1.557628,6.717351000000001,6.746364,0.019471,-0.015882,-0.1094945,0.307401,0.30980100000000005,-0.03923466666666666,1,0,0,0,0,0,,,,,,,
22.253973,0.995414,7.655836,7.7896845,-0.004122999999999998,-0.068033,0.04611899999999999,-0.44007149999999995,-0.14800950000000002,0.1413585,1,0,0,0,0,0,,,,,,,
22.503973,1.3012963333333334,6.780362,8.133303666666666,-0.00814466666666667,-0.028557,0.08836899999999999,-0.009710333333333376,0.022816333333333366,-0.0072910000000000474,1,0,0,0,0,0,,,,,,,
22.753973,0.4564309999999999,6.98091,6.7846995,0.00030549999999999675,0.109189,0.027488000000000002,0.8322004999999999,0.1714895,0.21393249999999997,1,0,0,0,0,0,,,,,,,
23.003973,-1.2793623333333333,5.7428740000000005,8.424529999999999,-0.013846000000000002,0.17047733333333334,0.11886066666666666,-0.3920035,0.08988050000000003,-0.112828,1,0,0,0,0,0,52.3396,4.951908,5.0484480000000005,3.85,236.600006,3.790092,2.5
23.253973,-0.29102700000000004,9.223284,5.0184965,0.014279,-0.008934000000000001,-0.145229,-0.09409733333333331,0.26145199999999996,-0.041729333333333396,1,0,0,0,0,0,,,,,,,
23.503973,-2.1246266666666664,7.605586666666667,4.357031,0.041156,-0.0893365,-0.004657999999999999,-0.168411,-0.36387800000000003,0.03704550000000001,1,0,0,0,0,0,,,,,,,
23.753973,1.2294625,8.0508015,6.711718,-0.004581666666666666,-0.03425833333333333,-0.037618,0.8002485000000001,0.384906,0.29417400000000005,1,0,0,0,0,0,52.33958,4.951865,4.9945010000000005,3.78,234.399994,3.790092,2.5
24.003973,0.5799603333333333,6.793323333333333,8.739386,-0.013591500000000003,0.1860795,0.21654500000000002,0.07752166666666661,-0.27186400000000005,0.2268996666666667,1,0,0,0,0,0,,,,,,,
24.253973,-0.32871400000000006,5.205287,7.698608,0.006006666666666667,0.054466999999999995,-0.009824666666666657,0.029799999999999993,0.16647900000000002,-0.11384000000000001,1,0,0,0,0,0,,,,,,,
24.503973,-1.5040886666666669,7.880163333333335,4.501896666666666,-0.028786,0.006108500000000003,0.05627449999999999,-0.31246366666666664,0.25491266666666673,-0.1332593333333333,1,0,0,0,0,0,,,,,,,
24.753973,-1.561317,7.273732,6.0647585,0.052074499999999996,-0.085366,-0.152712,1.041047,-0.21645199999999998,0.536351,1,0,0,0,0,0,,,,,,,
25.003973,0.6418743333333333,6.545965,9.053144666666666,-0.028353666666666666,-0.004988666666666669,-0.07314933333333333,0.534067,0.277077,-0.32102949999999997,1,0,0,0,0,0,52.339559,4.951823,4.967897,3.76,232.600006,3.790092,2.5
25.253973,-1.881656,5.906682999999999,8.846415,0.0406975,0.168441,0.20646650000000003,0.04832133333333329,-0.32408866666666664,0.3203683333333333,1,0,0,0,0,0,,,,,,,
25.503973,-1.7194426666666667,8.184450666666665,5.574877666666667,0.022906500000000003,0.034359999999999995,-0.12194,0.5797030000000001,0.541416,0.007906499999999983,1,0,0,0,0,0,,,,,,,
25.753973,-1.0099205,7.996813,4.4745785,-0.016900333333333333,-0.14268366666666665,-0.024892000000000008,-0.010285666666666712,0.05998366666666665,-0.033430000000000015,1,0,0,0,0,0,,,,,,,
26.003973,0.3352943333333333,7.353343666666667,6.594618999999999,-0.013591500000000001,0.0232885,0.1265215,0.5595109999999999,-0.011610499999999996,0.30891450000000004,1,0,0,0,0,0,52.339538,4.951782,5.0038540000000005,3.8,230.899994,3.790092,2.5
26.253973,0.6868894999999999,6.5327044999999995,9.1025965,0.019801333333333334,-0.05502699999999999,-0.17139333333333331,1.0313675,0.065708,0.0651015,1,0,0,0,0,0,,,,,,,
26.503973,-2.0962123333333333,6.7939213333333335,7.585546666666667,-0.0220665,0.0968955,0.22540249999999998,-0.05571266666666667,-0.32307400000000003,0.2428983333333333,1,0,0,0,0,0,,,,,,,
26.753973,-2.111965,8.835797,4.831408,0.0112245,0.1256815,0.13904450000000002,-0.3534435,0.33641550000000003,0.014393000000000045,1,0,0,0,0,0,52.339515999999996,4.951741999999999,5.157181,3.79,230.899994,3.790092,2.5
27.003973,-0.15334,7.615856,5.865905000000001,0.00600666666666667,-0.07121466666666668,-0.13367366666666666,-0.300524,0.526165,-0.399767,1,0,0,0,0,0,,,,,,,
27.253973,1.170988,8.531609,4.6612184999999995,0.0030539999999999994,0.051922,0.1908895,0.13957933333333336,-0.28546866666666665,0.25273433333333334,1,0,0,0,0,0,,,,,,,
27.503973,-0.709771,7.468697333333334,6.564110666666667,-0.008908333333333332,-0.07299633333333333,-0.26526066666666664,1.5425084999999998,0.5691525000000001,-0.09367599999999998,1,0,0,0,0,0,,,,,,,
27.753973,-1.886442,6.8549880000000005,7.3476105,0.041843,-0.0440575,0.139273,-0.1626916666666667,-0.25856166666666663,0.4163836666666667,1,0,0,0,0,0,52.339494,4.9517,5.085348000000001,3.94,230.600006,3.790092,2.5
28.003973,0.30687933333333334,7.841279666666666,6.806184666666667,-0.014355,0.133852,0.4270585,-1.0944365,-0.2357995,0.180827,1,0,0,0,0,0,,,,,,,
28.253973,0.019890500000000144,6.631409,7.1807115,0.005243333333333333,0.04255566666666666,0.036141666666666676,-0.11660950000000003,0.6380364999999999,-0.200521,1,0,0,0,0,0,,,,,,,
28.503973,-0.35194433333333336,6.942276333333332,7.060123000000001,0.0158825,-0.010308000000000001,-0.121864,0.5121896666666667,-0.1018723333333333,0.05585533333333335,1,0,0,0,0,0,,,,,,,
28.753973,0.8887839999999999,7.290780999999999,9.334102,0.0009165000000000076,0.0726145,-0.0327565,0.210207,-0.22054800000000002,0.4391735,1,0,0,0,0,0,52.339471,4.951658,5.289758999999999,3.93,229.30000299999998,3.790092,2.5
29.003973,2.244866333333333,7.3775710000000005,6.6718876666666675,0.011554999999999998,0.09814266666666667,-0.11947133333333333,0.28442700000000004,0.009382000000000001,0.15025899999999995,1,0,0,0,0,0,,,,,,,
29.253973,-1.491177,7.563563500000001,5.4297629999999995,0.004505000000000001,-0.2230355,-0.161798,-0.19713750000000008,-0.191556,0.31073,1,0,0,0,0,0,,,,,,,
29.503973,-0.24556366666666665,4.8750773333333335,11.591530999999998,-0.02102333333333334,0.018885333333333334,0.358771,-1.3065950000000002,-0.48172899999999996,0.08424849999999998,1,0,0,0,0,0,,,,,,,
29.753973,1.9950160000000001,8.1338025,6.4332530000000006,-0.0073300000000000014,0.075745,-0.0377965,0.6820006666666667,0.27932466666666667,0.2003993333333333,1,0,0,0,0,0,,,,,,,
30.003973,-0.09581233333333324,7.0711900000000005,5.862814333333333,0.011071999999999999,0.13896799999999998,0.007864999999999997,0.514262,-0.4216915,0.41493399999999997,1,0,0,0,0,0,52.339448,4.951618,5.235687,3.84,228.0,3.790092,2.5
30.253973,0.614806,8.2863445,5.7964635,0.016594666666666664,0.07233433333333333,-0.18193066666666666,-0.14457699999999996,-0.07346799999999998,0.332694,1,0,0,0,0,0,,,,,,,
30.503973,-1.2950156666666668,7.571788000000001,5.274279666666666,-0.01466,-0.169663,-0.050929499999999996,0.002558666666666598,0.15673933333333334,-0.188477,1,0,0,0,0,0,,,,,,,
30.753973,0.9043375,6.416354,9.132058,-0.006719333333333333,0.032426,0.210946,-0.9320525,-0.250694,0.1534215,1,0,0,0,0,0,52.339425,4.95158,5.214087,3.78,226.80000299999998,3.790092,2.5
31.003973,0.6620143333333334,7.11117,7.700003333333334,0.018249,0.034666,-0.097583,1.198209,0.06708733333333333,0.1962853333333333,1,0,0,0,0,0,,,,,,,
31.253973,0.669392,7.331459000000001,8.5235335,0.018554499999999995,0.0685675,-0.159584,1.0097010000000002,-0.48422099999999996,0.605931,1,0,0,0,0,0,,,,,,,
31.503973,-1.7776676666666666,7.5513493333333335,6.494818666666667,0.017562,-0.017358333333333333,-0.11025800000000001,0.1722715,0.325778,-0.044406,1,0,0,0,0,0,,,,,,,
31.753973,-0.0019440000000000568,8.273034500000001,7.111768,0.0264955,-0.20959700000000003,-0.08528949999999999,-0.18346566666666667,0.2646486666666667,-0.16752699999999998,1,0,0,0,0,0,,,,,,,
32.003973,-0.9441683333333334,6.5547390000000005,8.304390666666668,-0.0025195,-0.102241,0.228533,-0.7110664999999999,-0.240668,0.08823800000000001,1,0,0,0,0,0,52.339402,4.951543,5.184553,3.69,227.0,3.790092,2.5
32.253973,1.7255239999999998,7.936992999999999,4.029812499999999,-0.006057666666666665,0.04174133333333333,-0.021583333333333343,1.1834473333333333,0.5150296666666666,-0.17797800000000005,1,0,0,0,0,0,,,,,,,
32.503973,1.3902299999999999,10.311869999999999,-0.5081760000000001,0.011224499999999998,0.058107,-0.074294,0.04077049999999993,-0.6847384999999999,0.593291,1,0,0,0,0,0,,,,,,,
32.753973,1.3902299999999999,10.311869999999999,-0.5081760000000001,0.010333333333333333,0.029473666666666662,-0.07325066666666667,-0.032583999999999974,0.030023000000000022,-0.0232535,1,0,0,0,0,0,52.33938,4.951505,5.410941,3.72,227.80000299999998,3.790092,2.5
33.003973,-0.5641076666666667,8.318249333333332,4.3506496666666665,0.0006875000000000006,-0.0978885,0.037795999999999996,-0.03262133333333337,0.25789,-0.03522166666666665,1,0,0,0,0,0,,,,,,,
33.253973,-0.088086,7.3438715,6.434898500000001,-0.03329100000000001,-0.131561,-0.0804795,0.63031,0.1585595,-0.1902375,1,0,0,0,0,0,,,,,,,
33.503973,-0.2459623333333333,7.141479,6.811468666666666,-0.013896666666666668,-0.093256,0.020513999999999994,0.306633,-0.2381535,0.6555905,1,0,0,0,0,0,,,,,,,
33.753973,-0.29222349999999997,7.035197999999999,6.8190954999999995,0.0329855,0.205092,0.1123195,0.2809096666666666,-0.0014139999999999893,-0.1287763333333333,1,0,0,0,0,0,52.339358000000004,4.951466,5.536071,3.69,229.600006,3.790092,2.5
34.003973,-0.16291133333333332,7.416952333333334,7.147760333333333,0.024943000000000003,-0.04413366666666666,-0.22687899999999997,0.19934349999999995,0.218128,0.5421225,1,0,0,0,0,0,,,,,,,
34.253973,0.43011000000000005,7.4587270000000006,7.0815589999999995,-0.0193945,-0.167296,0.13026300000000002,-0.6198393333333333,0.11183366666666665,-0.40281033333333327,1,0,0,0,0,0,,,,,,,
34.503973,0.43011000000000005,7.4587270000000006,7.0815589999999995,-0.009468,-0.023746999999999997,0.25151599999999996,-0.06229300000000004,-0.002340000000000002,-0.29505349999999997,1,0,0,0,0,0,,,,,,,
34.753973,0.43011000000000005,7.4587270000000006,7.0815589999999995,-0.016951,-0.06062633333333333,-0.208299,0.9492445,0.46904350000000006,-0.050347499999999934,1,0,0,0,0,0,52.339337,4.951427,5.572456,3.61,230.80000299999998,3.790092,2.5
35.003973,0.43011000000000005,7.4587270000000006,7.0815589999999995,-0.0138965,0.1801235,0.383459,-0.2921993333333333,-0.4235596666666666,0.561556,1,0,0,0,0,0,,,,,,,
35.253973,-0.40139600000000003,7.7635135,6.377470499999999,0.0371855,0.2590755,0.180429,-0.3013435000000001,0.6238835,-0.3343675,1,0,0,0,0,0,,,,,,,
35.503973,-0.3148556666666666,7.352246666666667,6.526623000000001,-0.027640666666666664,-0.07834133333333333,-0.2503453333333333,0.3140449999999999,0.23628733333333332,-0.18092466666666662,1,0,0,0,0,0,,,,,,,
35.753973,-0.5925230000000001,6.6043400000000005,7.045517,0.0788755,-0.1361425,-0.0805555,0.0037375000000000047,-0.5146025000000001,0.33681700000000003,1,0,0,0,0,0,52.339317,4.951387,5.615678,3.64,231.600006,3.790092,2.5
36.003973,0.2790626666666666,7.230512,6.766104333333334,-0.024281333333333332,0.035531,0.07828999999999998,0.163012,0.1415705,0.0919625,1,0,0,0,0,0,,,,,,,
36.253973,1.411765,7.203892,6.6394839999999995,0.007024499999999998,0.0089335,-0.226472,1.030596,0.14762466666666674,0.03934000000000001,1,0,0,0,0,0,,,,,,,
36.503973,1.411765,7.203892,6.6394839999999995,0.004047,0.07971550000000001,0.07482849999999999,-0.809083,0.08222,-0.384962,1,0,0,0,0,0,,,,,,,
36.753973,1.411765,7.203892,6.6394839999999995,-0.009773666666666667,-0.16559066666666666,-0.22041366666666665,0.461189,0.5442026666666667,-0.03678999999999999,1,0,0,0,0,0,,,,,,,
37.003973,1.411765,7.203892,6.6394839999999995,0.0026725000000000013,-0.0300845,0.3401655,-0.738869,-0.7273345,0.44811850000000003,1,0,0,0,0,0,52.339296999999995,4.951345,5.680628,3.66,232.69999700000002,3.790092,2.5
37.253973,1.411765,7.203892,6.6394839999999995,0.018325333333333332,-0.08796200000000003,-0.2693836666666667,1.6857355,0.4302915,-0.150282,1,0,0,0,0,0,,,,,,,
37.503973,-0.4630113333333334,6.852944333333333,7.088338333333334,-0.006260999999999999,-0.039246500000000004,0.0753635,0.2517043333333333,-0.21546233333333334,0.3383913333333333,1,0,0,0,0,0,,,,,,,
37.753973,-1.479811,7.070641500000001,6.623333499999999,-0.006566500000000003,0.161951,0.288854,-1.0636135,-0.019768000000000008,-0.12881700000000001,1,0,0,0,0,0,52.339277,4.951302,5.685336,3.72,234.600006,3.790092,2.5
38.003973,-0.07347966666666665,7.524629333333333,6.272984,0.011708000000000001,-0.08867466666666667,-0.22000666666666666,0.10285399999999995,0.6236254999999999,-0.3537715,1,0,0,0,0,0,,,,,,,
38.253973,-0.934248,6.6385875,7.4120675,0.006261,-0.225555,-0.015729500000000007,0.17739399999999997,-0.17516199999999996,0.10360433333333334,1,0,0,0,0,0,,,,,,,
38.503973,-0.077468,7.021139999999999,6.559624,-0.024052,0.0930015,0.40880949999999994,-0.14768250000000002,0.0494845,0.06837199999999999,1,0,0,0,0,0,,,,,,,
38.753973,-0.077468,7.021139999999999,6.559624,0.009926333333333334,0.147418,-0.06291733333333333,0.18621500000000002,0.07305466666666667,0.236904,1,0,0,0,0,0,52.339258,4.951257,5.868389,3.7,236.600006,3.790092,2.5
39.003973,-0.077468,7.021139999999999,6.559624,-0.0087045,-0.03214600000000001,-0.1727935,-0.15756849999999994,0.186604,-0.45237199999999994,1,0,0,0,0,0,,,,,,,
39.253973,-0.077468,7.021139999999999,6.559624,-0.015882,-0.08780933333333334,0.057012666666666656,0.47606599999999993,0.1874625,-0.08814949999999999,1,0,0,0,0,0,,,,,,,
39.503973,-0.06889366666666667,6.894419999999999,6.910770666666667,0.016416499999999997,0.0269535,0.1633255,-0.7320976666666666,-0.438015,0.6888709999999999,1,0,0,0,0,0,,,,,,,
39.753973,0.5102695,7.526175,6.5068325,-0.003664999999999998,0.031688,-0.033978,0.7241354999999999,0.46334700000000006,-0.28367349999999997,1,0,0,0,0,0,52.339240000000004,4.951212,5.986013,3.63,237.19999700000002,3.790092,2.5
40.003973,-0.570688,6.849754,6.757630666666667,-0.002443333333333332,0.05166766666666667,0.06734600000000002,-0.30854466666666663,-0.19303833333333334,-0.05182199999999998,1,0,0,0,0,0,,,,,,,
40.253973,-0.5021935,7.234849,7.112216500000001,-0.0006110000000000004,0.145458,0.07925750000000001,-0.3038425,0.16390300000000002,0.330098,1,0,0,0,0,0,,,,,,,
40.503973,-0.5028913333333332,7.252346,6.581957,-0.005803333333333331,0.036498,-0.018986999999999993,-0.6615935,0.1446585,-0.4713995,1,0,0,0,0,0,,,,,,,
40.753973,0.440878,7.310969999999999,7.147958999999999,0.031382,-0.1848575,-0.31137899999999996,0.763079,-0.07727166666666667,0.4604356666666667,1,0,0,0,0,0,52.339222,4.951168,5.88623,3.62,236.0,3.790092,2.5
41.003973,0.44087799999999994,7.31097,7.147958999999999,-0.0138205,0.046348,0.260679,-0.27452,-0.30021950000000003,0.405165,1,0,0,0,0,0,,,,,,,
41.253973,0.440878,7.310969999999999,7.147958999999999,-0.013591666666666669,0.16747366666666666,0.07197800000000001,0.06225950000000002,0.346134,-0.0662825,1,0,0,0,0,0,,,,,,,
41.503973,0.44087799999999994,7.31097,7.147958999999999,0.08101349999999999,0.0504715,-0.207154,0.4611066666666666,0.012571999999999991,0.17370999999999995,1,0,0,0,0,0,,,,,,,
41.753973,0.2202895,7.172485499999999,7.3076799999999995,-0.0008400000000000005,-0.11674799999999999,-0.402319,1.2047385,0.2030585,-0.197851,1,0,0,0,0,0,52.339202,4.951124,5.757332,3.67,234.5,3.790092,2.5
42.003973,-1.300898,6.795217333333333,6.884449666666666,0.051922,-0.24428800000000003,-0.05411100000000002,-0.0499083333333333,-0.22228766666666666,0.16068466666666667,1,0,0,0,0,0,,,,,,,
42.253973,-0.02796599999999999,7.483852,6.8482585,-0.011377000000000002,-0.13179049999999998,-0.023746500000000004,0.8447929999999999,0.391156,0.142094,1,0,0,0,0,0,,,,,,,
42.503973,-0.801097,6.9191460000000005,7.011269333333334,-0.026826333333333337,0.05197266666666667,0.22244999999999995,-0.07947950000000004,-0.009725000000000004,-0.035603499999999996,1,0,0,0,0,0,,,,,,,
42.753973,0.194716,7.284799,6.7579294999999995,0.020081500000000002,0.09330699999999999,-0.121788,0.263098,-0.03367233333333334,0.29980866666666667,1,0,0,0,0,0,52.339183,4.951078,5.786454,3.8,236.100006,3.790092,2.5
43.003973,0.185145,7.4868429999999995,6.678069,0.017409,-0.2206685,-0.219752,0.26471150000000004,0.10162299999999999,-0.01875899999999997,1,0,0,0,0,0,,,,,,,
43.253973,0.185145,7.4868429999999995,6.678069,-0.02046333333333333,0.06592066666666667,0.310565,-0.9076086666666666,-0.23111500000000004,0.35170266666666666,1,0,0,0,0,0,,,,,,,
43.503973,0.185145,7.4868429999999995,6.678069,0.0185545,-0.016645500000000008,-0.3061105,1.269866,0.28387799999999996,-0.229566,1,0,0,0,0,0,,,,,,,
43.753973,0.185145,7.4868429999999995,6.678069,-0.0038179999999999998,-0.042046666666666656,0.059913666666666664,0.009307499999999969,-0.323848,0.46927,1,0,0,0,0,0,52.339165,4.9510309999999995,5.819298000000001,3.81,238.19999700000002,3.790092,2.5
44.003973,-0.8668003333333333,7.057131666666667,6.907680333333334,-0.011224,0.0839915,0.13201949999999998,-0.6102673333333334,-0.011749000000000018,0.12523766666666666,1,0,0,0,0,0,,,,,,,
44.253973,-0.7491030000000001,6.900152500000001,6.9086775,0.01466,0.13339399999999998,0.2088335,-0.501416,-0.125004,0.0807355,1,0,0,0,0,0,,,,,,,
44.503973,0.09062800000000003,7.293123666666667,6.792824333333333,0.011351666666666668,0.027335333333333336,-0.15235533333333331,0.20774950000000003,0.2205305,0.040924000000000016,1,0,0,0,0,0,,,,,,,
44.753973,-0.311067,7.033552499999999,6.869345000000001,0.0251975,-0.101477,-0.228533,0.6496719999999999,0.13586166666666669,-0.008905000000000015,1,0,0,0,0,0,52.339147,4.950984,5.805269,3.8,239.100006,3.790092,2.5
45.003973,0.000299,7.555936,6.669394999999999,-0.022041333333333333,0.005853666666666664,0.11173433333333334,0.39474299999999996,0.11319499999999999,0.059955,1,0,0,0,0,0,,,,,,,
45.253973,0.000299,7.555936,6.669395,0.029626,0.086435,0.022830499999999997,-0.107887,-0.008651,0.13132733333333338,1,0,0,0,0,0,,,,,,,
45.503973,0.000299,7.555936,6.669394999999999,-0.017791,-0.08315149999999999,-0.123849,0.13648349999999998,0.35958450000000003,-0.18501049999999997,1,0,0,0,0,0,,,,,,,
45.753973,0.000299,7.555936,6.669395,0.0030543333333333347,-0.045661,-0.003817666666666665,0.65289,-0.14920049999999999,0.22112000000000004,1,0,0,0,0,0,52.339129,4.9509360000000004,5.728922,3.93,238.600006,3.790092,2.5
46.003973,0.032502333333333334,7.428318666666667,6.671189666666666,-0.016569,0.013438499999999999,-0.029625999999999996,0.28345966666666667,0.18883966666666666,-0.07612066666666667,1,0,0,0,0,0,,,,,,,
46.253973,-0.8485550000000001,6.949504500000001,7.029066,0.0380255,0.064139,0.052074499999999996,-0.2703009999999999,-0.0494105,0.1939715,1,0,0,0,0,0,,,,,,,
46.503973,-0.2576273333333334,7.209674333333333,6.877271666666666,0.019954333333333334,-0.05253266666666667,-0.1517956666666667,0.31306866666666666,0.17339733333333338,0.08063899999999999,1,0,0,0,0,0,,,,,,,
46.753973,-1.4324035,6.876075,6.822685,-0.038102,-0.037032499999999996,0.087504,-1.1056935,-0.1780025,0.027662,1,0,0,0,0,0,52.339110999999995,4.950886,5.970079,3.96,238.80000299999998,3.790092,2.5
47.003973,-0.009172333333333338,7.079664666666666,6.870192666666665,-0.005090333333333331,-0.040061333333333345,-0.007075666666666667,-0.006923500000000001,0.16354199999999997,0.052781999999999996,1,0,0,0,0,0,,,,,,,
47.253973,-0.281456,7.254739,6.935596,0.013591499999999998,0.018478,-0.04634800000000001,0.20560366666666666,-0.02629200000000001,0.14633433333333332,1,0,0,0,0,0,,,,,,,
47.503973,-0.281456,7.254739,6.935596,0.020769000000000003,0.08819099999999999,0.04184299999999999,-0.7298924999999999,-0.1413545,0.138653,1,0,0,0,0,0,,,,,,,
47.753973,-0.281456,7.254739,6.935596,0.0032576666666666657,-0.16039866666666666,-0.1890063333333333,0.946436,0.4722695,-0.32431350000000003,1,0,0,0,0,0,52.339094,4.950835,5.931634,3.99,241.0,3.790092,2.5
48.003973,-0.281456,7.254739,6.935596,0.0139735,-0.079105,0.0689495,-0.35498199999999996,-0.24625633333333338,0.41089033333333336,1,0,0,0,0,0,,,,,,,
48.253973,-0.784248,6.945018,6.942027,0.011351666666666668,0.029779000000000003,0.16615033333333332,-0.305561,0.1268625,-0.027766,1,0,0,0,0,0,,,,,,,
48.503973,0.11994033333333325,7.121937666666667,6.904689,-0.0075595,0.006871999999999999,-0.10483700000000001,0.8884643333333333,0.2859363333333333,-0.07450733333333336,1,0,0,0,0,0,,,,,,,
48.753973,-0.92004,7.220791,6.876971999999999,0.016569,0.0752105,0.067804,-0.12341550000000001,0.38301100000000005,-0.09778399999999998,1,0,0,0,0,0,52.339077,4.950784,6.022279,3.95,242.399994,3.790092,2.5
49.003973,-0.7734796666666667,6.904290333333335,6.924629333333333,-0.028455333333333332,-0.03145866666666667,0.046271666666666676,0.505871,0.31069450000000004,-0.2598935,1,0,0,0,0,0,,,,,,,
49.253973,-0.127418,6.910472,6.778268,-0.011300999999999992,0.010079,-0.020845,0.14102566666666663,0.035791666666666666,0.06996366666666667,1,0,0,0,0,0,,,,,,,
49.503973,-0.127418,6.910472000000001,6.778268,0.0342075,-0.0216085,-0.06665850000000001,0.7579395,0.37762,-0.1555715,1,0,0,0,0,0,,,,,,,
49.753973,-0.127418,6.910472,6.778268,0.015678666666666667,0.08404233333333333,0.052482,0.21846233333333334,0.08337166666666668,-0.0053513333333333425,1,0,0,0,0,0,52.339062,4.950732,5.849925,3.93,243.30000299999998,3.790092,2.5
50.003973,-0.127418,6.910472000000001,6.778268,-0.022448500000000003,-0.0013745000000000007,-0.15798,0.35831250000000003,0.2668415,0.006985999999999999,1,0,0,0,0,0,,,,,,,
50.253973,-0.127418,6.910472,6.778268,0.0021380000000000023,-0.04301366666666667,-0.0059050000000000005,0.047779500000000016,0.11395,-0.1920665,1,0,0,0,0,0,,,,,,,
50.503973,-0.26450666666666667,7.226424333333334,6.5807606666666665,0.023823000000000004,-0.0263425,0.009926500000000001,0.10145066666666669,0.19591366666666668,-0.005272666666666666,1,0,0,0,0,0,,,,,,,
50.753973,-0.003738499999999978,7.1219375,7.007979499999999,0.010079,-0.031306,-0.08070849999999999,0.7222155,0.1540475,0.15513549999999998,1,0,0,0,0,0,52.339046,4.95068,5.8746529999999995,3.96,242.899994,3.790092,2.5
51.003973,-0.4602193333333333,6.860521333333334,7.1677,0.005039333333333333,0.013286000000000001,0.015372666666666668,-0.0957845,-0.187533,0.20022099999999998,1,0,0,0,0,0,,,,,,,
51.253973,-1.1829515000000002,7.208228500000001,6.607480499999999,-0.0116065,0.07406499999999999,0.11926800000000001,-0.025177666666666654,0.172616,0.017985333333333336,1,0,0,0,0,0,,,,,,,
51.503973,0.06679933333333332,7.268797,6.816354333333333,0.02336466666666667,-0.07386166666666667,-0.2279476666666667,0.9520755000000001,0.2874205,0.0202425,1,0,0,0,0,0,,,,,,,
51.753973,0.151944,7.214061,6.837192,0.031077,-0.188217,-0.17302250000000002,0.7061606666666665,-0.07310466666666668,0.294595,1,0,0,0,0,0,,,,,,,
52.003973,0.151944,7.214061,6.837191999999999,-0.009315499999999999,-0.1001025,0.0606265,0.18378600000000003,-0.348966,0.14743050000000002,1,0,0,0,0,0,52.33903,4.950628,5.860501,3.92,243.399994,3.790092,2.5
52.253973,0.151944,7.214061,6.837192,-0.011249666666666666,0.08938733333333333,0.26719466666666664,-0.11529050000000003,0.15902,0.242162,1,0,0,0,0,0,,,,,,,
52.503973,0.151944,7.214061,6.837191999999999,0.0299315,-0.033901999999999995,-0.168823,0.41634466666666664,-0.007057333333333335,0.20394766666666664,1,0,0,0,0,0,,,,,,,
52.753973,-0.785743,6.725028,7.163812,0.004657999999999999,-0.010995500000000002,0.052762,-0.133714,-0.374173,0.440032,1,0,0,0,0,0,52.339015,4.950576,5.831764,3.88,245.100006,3.790092,2.5
53.003973,0.06061800000000006,7.457331666666666,6.634399666666667,-0.005395666666666667,-0.08124266666666667,-0.15383166666666667,0.7115870000000001,0.324139,-0.05366766666666667,1,0,0,0,0,0,,,,,,,
53.253973,-1.3081265000000002,6.5572315,7.2106215,-0.0410795,0.0726905,0.336271,-0.8007625,-0.535379,0.468541,1,0,0,0,0,0,,,,,,,
53.503973,-0.07876366666666663,7.319943333333335,6.639783666666666,0.012064,0.059456,0.019954333333333327,0.19249750000000004,0.31361,-0.0994745,1,0,0,0,0,0,,,,,,,
53.753973,-0.707677,7.153942,6.2964139999999995,-0.005803000000000001,-0.035047,0.03313850000000001,-0.035968666666666656,-0.064237,0.10150733333333335,1,0,0,0,0,0,,,,,,,
54.003973,-0.707677,7.153942,6.2964139999999995,0.022296000000000003,0.0172565,0.117588,-0.2602205,0.07122049999999999,-0.064857,1,0,0,0,0,0,52.339001,4.950524,5.895618,3.86,246.30000299999998,3.790092,2.5
54.253973,-0.707677,7.153942,6.2964139999999995,0.003563333333333335,0.14161466666666667,0.016797999999999997,0.6615359999999999,-0.09288099999999999,0.38265600000000005,1,0,0,0,0,0,,,,,,,
54.503973,-0.707677,7.153942,6.2964139999999995,0.0087045,0.017562,-0.18722450000000002,0.455441,0.21673399999999998,0.05938950000000001,1,0,0,0,0,0,,,,,,,
54.753973,-0.707677,7.153942,6.2964139999999995,-0.0002036666666666668,-0.05472166666666667,-0.06103366666666666,-0.08305000000000001,-0.24192000000000002,0.169664,1,0,0,0,0,0,,,,,,,
55.003973,-0.803789,7.083552666666667,6.8022963333333335,-0.006795500000000001,-0.04703500000000001,0.1043785,-0.1716033333333334,0.020465333333333325,0.03895700000000002,1,0,0,0,0,0,52.338988,4.950472,5.970337000000001,3.88,246.100006,3.790092,2.5
55.253973,-0.6016455,7.235746,6.4655565,-0.034131,-0.0008400000000000005,0.18004750000000003,-0.22265,0.17092200000000002,-0.31537950000000003,1,0,0,0,0,0,,,,,,,
55.503973,-0.21007000000000006,7.024131000000001,7.175277333333334,0.004123333333333336,0.19623466666666667,0.11417766666666666,0.028061000000000003,0.011152999999999968,0.409181,1,0,0,0,0,0,,,,,,,
55.753973,-0.25543350000000004,7.016803,6.9868925,0.056351000000000005,0.113236,-0.105295,0.27263299999999996,-0.030207666666666633,0.2133603333333333,1,0,0,0,0,0,,,,,,,
56.003973,0.7755740000000001,7.283752000000001,6.492026999999999,-0.029244500000000003,-0.09376499999999999,-0.419423,1.354002,0.24708899999999998,-0.271007,1,0,0,0,0,0,52.338972999999996,4.9504209999999995,6.019359,3.9,243.69999700000002,3.790092,2.5
56.253973,0.775574,7.283752000000001,6.492026999999999,0.09066,-0.210488,-0.21364366666666665,0.34506166666666666,-0.13031733333333337,0.5197826666666666,1,0,0,0,0,0,,,,,,,
56.503973,0.7755740000000001,7.283752000000001,6.492026999999999,-0.0682625,-0.21624,0.1385095,-0.001374499999999973,0.16534749999999998,-0.33427949999999995,1,0,0,0,0,0,,,,,,,
56.753973,0.775574,7.283752000000001,6.492026999999999,0.03461466666666667,0.158515,0.24041933333333335,-0.23598899999999998,-0.303132,0.42614199999999997,1,0,0,0,0,0,52.338957,4.9503699999999995,6.14858,3.91,243.5,3.790092,2.5
57.003973,0.25224366666666664,7.116354333333334,6.453642333333334,0.013819999999999999,-0.026648,-0.24830950000000002,0.304333,0.07054233333333332,-0.00654566666666669,1,0,0,0,0,0,,,,,,,
57.253973,-0.7043874999999999,7.308427999999999,6.862765,-0.017409,-0.10941799999999999,-0.065055,-0.05515200000000001,0.2234585,0.12346100000000002,1,0,0,0,0,0,,,,,,,
57.503973,-0.5154536666666667,6.886244666666666,7.082854666666667,0.019598,-0.03481833333333333,0.046882666666666684,-0.07651100000000001,-0.22854966666666665,0.3579136666666667,1,0,0,0,0,0,,,,,,,
57.753973,-0.38016000000000005,7.3384885,6.689135500000001,-0.0165695,-0.0472645,-0.053831000000000004,0.06276599999999996,0.2210365,-0.03273,1,0,0,0,0,0,,,,,,,
58.003973,-0.16789666666666667,6.849255333333333,7.204689333333332,0.004733999999999998,0.008042666666666665,0.09722633333333335,0.2795625,-0.152945,0.23722750000000004,1,0,0,0,0,0,52.338941999999996,4.950319,6.080962,3.89,244.80000299999998,3.790092,2.5
58.253973,-0.217448,6.6053869999999995,7.707580999999999,-0.033673,0.0424535,0.041996,-0.5964286666666666,0.02219633333333333,0.05845199999999998,1,0,0,0,0,0,,,,,,,
58.503973,-0.217448,6.6053869999999995,7.707581,0.0008400000000000005,-0.164547,-0.062612,-0.33521449999999997,0.12521949999999998,-0.3140225,1,0,0,0,0,0,,,,,,,
58.753973,-0.217448,6.6053869999999995,7.707580999999999,-0.00789,0.10628733333333333,0.36884999999999996,-1.0385205,-0.6428834999999999,0.716071,1,0,0,0,0,0,52.338928,4.950266,6.200419,3.86,246.69999700000002,3.790092,2.5
59.003973,-0.217448,6.6053869999999995,7.707581,-0.012904,0.22998400000000002,0.0552815,0.144291,0.2172146666666667,0.11358833333333333,1,0,0,0,0,0,,,,,,,
59.253973,-0.0909275,6.575028,7.363163999999999,0.06520799999999999,0.19715100000000002,-0.16989200000000002,0.3052555,-0.21529899999999996,0.4945265,1,0,0,0,0,0,,,,,,,
59.503973,-0.7434696666666666,7.123134,6.604788666666667,0.01237,-0.20178333333333334,-0.24851299999999998,0.0006183333333333874,-0.038817333333333315,-0.04213333333333332,1,0,0,0,0,0,,,,,,,
59.753973,-1.3009475,6.695716,7.1618675000000005,-0.056732000000000005,0.0868165,0.40323549999999997,-1.0488155,-0.462814,0.47425700000000004,1,0,0,0,0,0,52.338913,4.950214,6.232044999999999,3.92,245.399994,3.790092,2.5
60.003973,0.251944,7.232705,6.893821666666667,0.03064433333333333,0.13270666666666667,0.10934166666666667,-0.107321,0.044149999999999995,0.157907,1,0,0,0,0,0,,,,,,,
60.253973,0.6076275,7.203892,6.7295145000000005,0.003512499999999999,0.049478999999999995,-0.2951155,1.2241656666666667,0.14037133333333332,0.07034,1,0,0,0,0,0,,,,,,,
60.503973,0.45104700000000003,6.58445,7.115058,0.0308475,0.002138000000000001,-0.19654,0.05567999999999995,-0.24832100000000001,0.5438959999999999,1,0,0,0,0,0,,,,,,,
60.753973,0.45104700000000003,6.58445,7.115058,0.017052666666666667,-0.08928566666666667,-0.084806,0.071488,0.04579099999999999,0.126752,1,0,0,0,0,0,52.338896999999996,4.950162000000001,6.098143,3.88,243.100006,3.790092,2.5
61.003973,0.45104700000000003,6.58445,7.115058,-0.031153,0.011224000000000003,0.183407,-0.09314800000000001,-0.38483549999999994,0.267342,1,0,0,0,0,0,,,,,,,
61.253973,0.45104700000000003,6.58445,7.115058,0.040926666666666674,-0.15082833333333331,-0.313059,1.3952935,0.284499,0.1742765,1,0,0,0,0,0,,,,,,,
61.503973,-0.277368,6.913063999999999,7.014360333333333,-0.0159585,-0.1666085,0.026419000000000012,0.5324273333333333,0.05915233333333334,0.12766266666666667,1,0,0,0,0,0,,,,,,,
61.753973,-1.17682,6.800402,7.0087269999999995,0.027183000000000002,0.0370325,0.2052445,-0.5272895,-0.29381999999999997,0.28006349999999997,1,0,0,0,0,0,,,,,,,
62.003973,-0.7835496666666666,7.326623666666666,6.571488666666667,-0.023924666666666667,0.02015800000000001,0.11483900000000001,-0.320737,0.223196,-0.33075350000000003,1,0,0,0,0,0,52.338881,4.950111,6.029304,3.89,243.0,3.790092,2.5
62.253973,-0.5967105,6.793971,7.227371499999999,0.010537,-0.009925999999999999,0.10460749999999999,-0.3297866666666667,0.014608333333333334,0.22450100000000003,1,0,0,0,0,0,,,,,,,
62.503973,-0.145065,7.052247,6.539884,0.009010333333333334,0.052939999999999994,-0.048002666666666666,0.8645970000000001,0.112285,0.18814650000000002,1,0,0,0,0,0,,,,,,,
62.753973,-0.145065,7.052247,6.539884,-0.038407,0.1227805,0.16592150000000003,-0.21361800000000006,-0.012068333333333348,-0.09973133333333332,1,0,0,0,0,0,,,,,,,
63.003973,-0.145065,7.052247,6.539884,0.05154,-0.0294735,-0.338104,1.1012805,0.31396250000000003,0.2952115,1,0,0,0,0,0,52.338865999999996,4.9500589999999995,6.124346,3.87,244.69999700000002,3.790092,2.5
63.253973,-0.145065,7.052247,6.539884,-0.024077666666666667,-0.07386166666666666,0.1634526666666667,-0.7436715,-0.06291850000000002,-0.35231599999999996,1,0,0,0,0,0,,,,,,,
63.503973,0.0029910000000000028,7.196015666666667,6.592825,0.031764,0.055816000000000004,0.029168,-0.06443633333333328,0.017972666666666654,0.16140766666666664,1,0,0,0,0,0,,,,,,,
63.753973,0.5518445,7.1569325,6.6396345,0.00045799999999999964,-0.1457635,-0.244568,1.112266,0.14596,-0.1843775,1,0,0,0,0,0,52.338852,4.950007,6.098966000000001,3.87,245.899994,3.790092,2.5
64.003973,-1.032503,6.9803619999999995,6.957829666666666,0.017765666666666673,0.17414233333333332,0.27447400000000005,-0.643833,-0.030428999999999994,0.12224666666666666,1,0,0,0,0,0,,,,,,,
64.253973,0.07597200000000001,7.4923765,6.78769,-0.019700000000000002,0.050166,-0.20692449999999998,0.705083,0.457975,-0.006029499999999979,1,0,0,0,0,0,,,,,,,
64.503973,-0.6442676666666667,6.808378333333334,7.115656,-0.006465000000000001,-0.047493,-0.030135,-0.3168005,-0.06442899999999996,0.03360349999999995,1,0,0,0,0,0,,,,,,,
64.753973,-0.8841479999999999,7.225726,6.603292999999999,-0.005955499999999999,-0.0645205,-0.0946815,0.5541746666666667,-0.11748199999999998,0.3130466666666667,1,0,0,0,0,0,52.338838,4.949955,5.977517,3.9,245.0,3.790092,2.5
65.003973,-0.884148,7.225725999999999,6.603292999999998,0.034054999999999995,-0.17897800000000003,-0.178749,0.8472335,0.39554849999999997,-0.300103,1,0,0,0,0,0,,,,,,,
65.253973,-0.8841479999999999,7.225726,6.603292999999999,-0.012267666666666668,0.12924533333333332,0.28419666666666665,-0.9974354999999999,-0.4308285,0.23494199999999998,1,0,0,0,0,0,,,,,,,
65.503973,-0.884148,7.225725999999999,6.603292999999998,0.007177000000000001,0.028099,-0.0943755,0.26008566666666666,0.30301133333333335,-0.04141533333333334,1,0,0,0,0,0,,,,,,,
65.753973,-0.026470500000000008,6.9501025,7.008428,0.030033666666666667,-0.1407493333333333,-0.12339133333333334,0.27321650000000003,-0.157825,0.30867449999999996,1,0,0,0,0,0,52.338823,4.949903,6.0458870000000005,3.92,244.899994,3.790092,2.5
66.003973,-0.8030910000000001,7.0152573333333335,6.797111999999999,-0.06070300000000001,0.0232885,0.263428,-0.45935,-0.014574999999999986,-0.020901666666666676,1,0,0,0,0,0,,,,,,,
66.253973,0.07567299999999999,7.285845999999999,7.049106,0.014965500000000001,0.190584,0.103386,0.266104,0.25067,0.229542,1,0,0,0,0,0,,,,,,,
66.503973,-0.109671,7.152346333333334,6.713861333333334,0.01929266666666667,-0.016289,-0.173633,0.425572,0.064763,0.1894665,1,0,0,0,0,0,,,,,,,
66.753973,-1.279412,6.8629145,6.8706915,-0.021303000000000002,-0.022524999999999996,0.10880749999999999,-0.3788473333333333,-0.03326766666666666,-0.17652,1,0,0,0,0,0,52.338809000000005,4.94985,6.128845,3.93,244.80000299999998,3.790092,2.5
67.003973,-1.545763,6.364608999999999,7.374680000000001,0.030313500000000004,-0.0488675,-0.0326805,0.10226350000000001,0.14596050000000002,0.149223,1,0,0,0,0,0,,,,,,,
67.253973,-1.545763,6.364609,7.374680000000001,-0.025604666666666664,0.14415999999999998,0.22397733333333336,-0.22741266666666668,-0.05964733333333335,0.15819833333333333,1,0,0,0,0,0,,,,,,,
67.503973,-1.545763,6.364608999999999,7.374680000000001,0.006260999999999996,0.0693315,-0.21562900000000002,0.756936,-0.02596599999999999,0.3004115,1,0,0,0,0,0,,,,,,,
67.753973,-1.545763,6.364609,7.374680000000001,0.06317199999999999,-0.1447196666666667,-0.372057,0.460017,0.202068,-0.006723999999999997,1,0,0,0,0,0,52.338794,4.949798,6.2016089999999995,3.92,244.5,3.790092,2.5
68.003973,-1.7620143333333331,6.6268226666666665,7.0454669999999995,-0.015118500000000002,-0.199747,0.1601185,-0.32055933333333336,-0.09621366666666668,0.084412,1,0,0,0,0,0,,,,,,,
68.253973,-1.154836,6.6329045,7.0428245,-0.017562,0.11155599999999999,0.564041,-1.053613,-0.42974749999999995,0.25103,1,0,0,0,0,0,,,,,,,
68.503973,0.6930213333333333,7.373482666666667,6.867102,0.004174000000000001,0.09712500000000002,-0.05115833333333333,1.0713395000000001,0.432351,0.1280075,1,0,0,0,0,0,,,,,,,
68.753973,-0.7088734999999999,6.7622665,6.988538,-0.009392000000000001,0.0854425,0.042683,-0.22063233333333335,-0.12104966666666667,0.06514433333333336,1,0,0,0,0,0,52.338778999999995,4.949745,6.194172,3.91,243.80000299999998,3.790092,2.5
69.003973,-0.53011,7.292825,6.765606333333333,0.010435333333333333,-0.040417666666666664,-0.07854466666666667,0.038246499999999996,0.093094,0.15622750000000002,1,0,0,0,0,0,,,,,,,
69.253973,-0.743869,7.521539,6.475576,0.009315,-0.11537350000000002,0.004046499999999998,-0.09711133333333337,0.1451356666666667,-0.04973099999999999,1,0,0,0,0,0,,,,,,,
69.503973,-0.743869,7.521539,6.475576,-0.0265715,0.17004499999999997,0.4840205,-1.183706,-0.3339705,0.167039,1,0,0,0,0,0,,,,,,,
69.753973,-0.743869,7.521539,6.475576,0.02570666666666667,0.16945933333333332,-0.13392833333333334,1.062146,0.6912805,0.04455649999999997,1,0,0,0,0,0,52.338763,4.949694,6.314481,3.87,242.19999700000002,3.790092,2.5
70.003973,-0.743869,7.521539,6.475576,0.038101499999999996,-0.0012980000000000005,-0.320618,0.6818476666666666,-0.15954733333333335,0.23583699999999996,1,0,0,0,0,0,,,,,,,
70.253973,-1.045514,7.088139,6.540630999999999,0.002214,-0.24052099999999998,-0.20784049999999998,0.0625755,0.060698,-0.19924950000000002,1,0,0,0,0,0,,,,,,,
70.503973,-1.4328023333333333,6.579364666666667,7.095616333333333,-0.0037156666666666657,0.13596433333333333,0.4599683333333333,-0.9319446666666665,-0.46492966666666663,0.3045966666666667,1,0,0,0,0,0,,,,,,,
70.753973,1.5046365000000002,7.7229845,6.792177,0.025502999999999998,-0.040926500000000005,-0.437825,2.1449439999999997,0.691026,-0.0014440000000000008,1,0,0,0,0,0,52.338747,4.949642,6.3583739999999995,4.0,241.399994,3.790092,2.5
71.003973,-0.7115656666666667,6.885745666666668,7.022236333333333,0.012369666666666666,-0.04270833333333333,-0.08210800000000001,0.5138555,-0.120473,0.3339485,1,0,0,0,0,0,,,,,,,
71.253973,-0.345464,7.102197,6.747161999999999,0.045661,-0.11010550000000001,-0.3059585,0.64085,0.021197000000000004,0.12012566666666667,1,0,0,0,0,0,,,,,,,
71.503973,-0.345464,7.102197,6.747161999999999,-0.0192415,-0.078723,0.23853599999999997,-1.3100645,-0.18359799999999998,0.025102499999999996,1,0,0,0,0,0,,,,,,,
71.753973,-0.345464,7.102197,6.747161999999999,0.025604666666666664,-0.08063166666666666,-0.08215866666666667,0.945598,0.3399493333333332,0.150577,1,0,0,0,0,0,52.33873,4.94959,6.179182,3.98,241.69999700000002,3.790092,2.5
72.003973,-0.345464,7.102197,6.747161999999999,-0.037795999999999996,-0.072691,0.072691,-0.122486,-0.292366,0.05859950000000003,1,0,0,0,0,0,,,,,,,
72.253973,-0.345464,7.102197,6.747161999999999,0.010435333333333331,0.159533,0.23181666666666667,-0.8147615,-0.2263755,0.14674199999999998,1,0,0,0,0,0,,,,,,,
72.503973,0.04825533333333332,7.398607666666667,6.698109,0.012140500000000002,-0.042683,-0.2103605,0.6015586666666667,0.4052613333333333,-0.14386566666666664,1,0,0,0,0,0,,,,,,,
72.753973,-1.3544870000000002,6.7139615,6.994968,-0.015041999999999998,-0.04459200000000001,0.061619,-0.768275,-0.288207,0.16404699999999997,1,0,0,0,0,0,52.338714,4.9495379999999995,6.400504,3.92,243.5,3.790092,2.5
73.003973,0.02701866666666669,7.0570319999999995,7.009773666666668,0.013540333333333333,0.005090333333333336,-0.006719333333333337,0.5282045,0.054243500000000014,0.26562650000000004,1,0,0,0,0,0,,,,,,,
73.253973,0.348305,7.312765000000001,6.9001529999999995,-0.029626,-0.0537545,-0.1975325,0.9345810000000001,0.21827666666666667,0.060252333333333345,1,0,0,0,0,0,,,,,,,
73.503973,-1.4685949999999999,6.143572,7.291828,0.022449,0.071698,0.02275400000000001,-0.060361,-0.09407850000000001,0.420933,1,0,0,0,0,0,,,,,,,
73.753973,-1.468595,6.143572,7.291828,0.001679666666666665,-0.06256133333333334,0.08394066666666666,-0.32697733333333334,0.07175699999999999,-0.36542,1,0,0,0,0,0,52.338699,4.949486,6.546692,3.92,244.69999700000002,3.790092,2.5
74.003973,-1.4685949999999999,6.143572,7.291828,0.0073305,0.07085799999999999,0.026725,0.4310550000000001,-0.0602935,0.5050604999999999,1,0,0,0,0,0,,,,,,,
74.253973,-1.468595,6.143572,7.291828,-0.0014763333333333336,0.029066333333333333,-0.06586966666666666,-0.262562,-0.07931349999999998,0.1407995,1,0,0,0,0,0,,,,,,,
74.503973,-1.1640086666666667,6.349055666666666,7.192326333333333,0.051082,-0.092696,-0.24922550000000002,1.2815343333333333,0.19516466666666665,0.05050166666666667,1,0,0,0,0,0,,,,,,,
74.753973,-0.7692924999999999,6.915108,7.077820000000001,0.023822999999999997,0.052685499999999996,-0.046806000000000014,0.24686249999999998,-0.1248075,0.336609,1,0,0,0,0,0,52.338684,4.949435,6.3798330000000005,3.84,245.19999700000002,3.790092,2.5
75.003973,-1.087438,7.102196666666667,6.711967333333334,0.01654366666666667,-0.22301,-0.117486,0.0905413333333333,0.10338133333333337,-0.04452599999999999,1,0,0,0,0,0,,,,,,,
75.253973,-0.7950155,7.017999499999999,6.997809999999999,0.015042,-0.0024430000000000025,0.2065425,-0.12179800000000002,-0.027895,0.220554,1,0,0,0,0,0,,,,,,,
75.503973,-0.46859399999999996,7.107879666666666,6.722136666666667,-0.04978366666666667,-0.032985999999999994,0.065055,0.593523,0.149638,0.011276499999999995,1,0,0,0,0,0,,,,,,,
75.753973,-1.508076,6.949953999999999,6.546762999999999,0.0452025,0.09880449999999999,-0.021226999999999996,-0.046445666666666684,-0.23259166666666667,0.281307,1,0,0,0,0,0,52.338671000000005,4.949383,6.534325,3.84,247.100006,3.790092,2.5
76.003973,-1.508076,6.949953999999999,6.546762999999999,0.035353,-0.174473,-0.3513135,0.6213724999999999,0.317325,0.040048000000000014,1,0,0,0,0,0,,,,,,,
76.253973,-1.508076,6.949953999999999,6.546762999999999,-0.027437000000000003,-0.04006133333333333,0.29127233333333336,-0.5820725,-0.18385300000000004,-0.11683999999999997,1,0,0,0,0,0,,,,,,,
76.503973,-1.508076,6.949953999999999,6.546762999999999,-0.012751500000000002,0.005650499999999999,0.13064499999999998,-0.8545083333333334,-0.01019399999999998,0.2153613333333333,1,0,0,0,0,0,,,,,,,
76.753973,-0.6065805,7.2507015,6.77438,3.333333333336667e-07,0.19078833333333334,0.13637166666666664,-0.262697,0.161569,0.08523750000000001,1,0,0,0,0,0,52.338659,4.949331,6.381507,3.69,249.19999700000002,3.790092,2.5
77.003973,-0.2927216666666667,7.022336,6.983552666666665,0.0275645,0.121635,-0.02191449999999999,-0.17889,-0.02526233333333337,0.17601766666666666,1,0,0,0,0,0,,,,,,,
77.253973,0.27128599999999997,7.2345500000000005,6.757630499999999,0.036422,-0.044820499999999985,-0.30687450000000005,0.7029225,0.15535000000000002,-0.0041495,1,0,0,0,0,0,,,,,,,
77.503973,-1.118844,6.915556333333332,6.969893666666667,-0.010689666666666667,-0.06062666666666666,0.11061400000000003,-0.951283,-0.062465999999999966,-0.271845,1,0,0,0,0,0,,,,,,,
77.753973,-0.7564310000000001,6.584749,6.7402820000000006,-0.0080175,0.166914,0.3064165,-0.39496966666666666,-0.04691366666666663,0.299294,1,0,0,0,0,0,,,,,,,
78.003973,-0.7564310000000001,6.5847489999999995,6.7402820000000006,0.013591,0.07803600000000001,-0.3020635,1.266736,0.5352920000000001,-0.22400899999999999,1,0,0,0,0,0,52.338646999999995,4.94928,6.428703,3.71,248.69999700000002,3.790092,2.5
78.253973,-0.7564310000000001,6.584749,6.7402820000000006,0.023874000000000003,-0.06251033333333333,-0.09580133333333335,-0.16501999999999994,-0.36691333333333337,0.3207206666666667,1,0,0,0,0,0,,,,,,,
78.503973,-0.7564310000000001,6.5847489999999995,6.7402820000000006,0.0164165,0.006490500000000001,0.0211505,0.23442549999999998,0.026501999999999998,0.42161550000000003,1,0,0,0,0,0,,,,,,,
78.753973,-0.7564310000000001,6.584749,6.7402820000000006,-0.023721333333333334,-0.11112333333333335,0.007380999999999999,-0.1402755,0.42819699999999994,-0.7180475000000001,1,0,0,0,0,0,52.338635,4.949228,6.46076,3.86,247.0,3.790092,2.5
79.003973,-1.0239286666666667,6.749455,6.757430666666667,0.0009164999999999998,0.17157150000000002,0.38422300000000004,-0.7504153333333332,-0.284534,0.25974633333333325,1,0,0,0,0,0,,,,,,,
79.253973,0.5916254999999999,7.5795650000000006,6.8030935,-0.009315,0.013897000000000001,-0.111938,0.792321,0.5282519999999999,0.0004604999999999748,1,0,0,0,0,0,,,,,,,
79.503973,-0.20937166666666665,6.842376000000001,6.868796666666667,0.02138,0.019801666666666665,-0.107,1.0800210000000001,-0.009103499999999987,-0.005758000000000013,1,0,0,0,0,0,,,,,,,
79.753973,-0.696311,7.198358000000001,6.909425499999999,-0.0217615,0.019623500000000002,0.005192000000000002,-0.472871,-0.10020433333333333,0.16973766666666665,1,0,0,0,0,0,,,,,,,
80.003973,-0.2468596666666667,7.188936666666667,7.326523333333333,0.024026666666666665,-0.05238033333333333,-0.08180266666666665,0.20832749999999997,0.1792855,0.247728,1,0,0,0,0,0,52.338621,4.949178,6.543413,3.79,244.899994,3.790092,2.5
80.253973,0.149252,7.102197,7.939086,-0.038636000000000004,-0.02787,0.11064000000000002,-0.1900476666666667,-0.002449666666666674,-0.3326546666666666,1,0,0,0,0,0,,,,,,,
80.503973,0.149252,7.102197,7.939086,0.030848,0.03604000000000001,-0.105906,0.9095884999999999,0.33681300000000003,0.17713149999999994,1,0,0,0,0,0,,,,,,,
80.753973,0.149252,7.102197,7.939086,-0.0016286666666666672,-0.04204633333333333,-0.05187100000000001,0.4462204999999999,-0.2910235,0.4722215,1,0,0,0,0,0,52.338606,4.949127,6.502287,3.89,245.399994,3.790092,2.5
81.003973,0.149252,7.102197,7.939086,0.0025959999999999993,0.037949000000000004,0.1277435,-0.517134,0.0583336666666667,-0.12640733333333332,1,0,0,0,0,0,,,,,,,
81.253973,-0.17886349999999995,7.266554,6.835098,0.0031309999999999997,-0.1637075,-0.1133885,0.42906449999999996,0.20968699999999998,0.062485500000000006,1,0,0,0,0,0,,,,,,,
81.503973,-0.45483566666666664,7.002197,6.843473,-0.008908333333333332,0.136779,0.28959233333333334,-0.24265266666666663,-0.05932433333333326,0.05206500000000003,1,0,0,0,0,0,,,,,,,
81.753973,0.560369,7.3241309999999995,7.0945695,0.0159585,-0.007483,-0.2389175,0.9841759999999999,0.259529,0.316151,1,0,0,0,0,0,52.338592,4.949075,6.486428,3.9,245.399994,3.790092,2.5
82.003973,-0.5956133333333334,7.056234333333333,6.793522666666667,0.009570000000000002,0.10206233333333332,-0.02580833333333334,-0.7519,-0.289717,0.09825100000000003,1,0,0,0,0,0,,,,,,,
82.253973,0.788136,7.644171000000001,6.616155,0.007712,-0.1648525,-0.18134550000000002,0.6079553333333334,0.291241,-0.23781000000000005,1,0,0,0,0,0,,,,,,,
82.503973,0.7881360000000001,7.644171000000001,6.616155,0.011987500000000002,-0.0439045,0.080632,-0.179139,-0.3026775,0.7055215,1,0,0,0,0,0,,,,,,,
82.753973,0.788136,7.644171000000001,6.616155,-0.013286000000000001,0.011198666666666668,0.09188133333333333,-0.506061,0.00864849999999999,-0.18284899999999998,1,0,0,0,0,0,52.338577,4.949022,6.532398000000001,3.94,245.899994,3.790092,2.5
83.003973,0.7881360000000001,7.644171000000001,6.616155,0.008475499999999999,-0.0645975,-0.1504975,0.9876206666666666,0.24016033333333334,0.07124866666666664,1,0,0,0,0,0,,,,,,,
83.253973,0.41186449999999997,7.4137125,6.772436,0.018885666666666665,-0.046424333333333324,-0.016594666666666664,-0.251399,-0.2906645,0.6759255,1,0,0,0,0,0,,,,,,,
83.503973,-1.1934203333333333,7.182755,6.5649083333333325,-0.026724499999999998,0.0552815,0.41995750000000004,-0.9090753333333333,0.12994800000000004,-0.23047966666666664,1,0,0,0,0,0,,,,,,,
83.753973,0.11440700000000001,6.668797,6.8992555,0.008093999999999999,0.1483595,0.051616499999999996,0.07045050000000001,-0.39901549999999997,0.110931,1,0,0,0,0,0,52.338563,4.948969,6.6038190000000005,3.94,245.899994,3.790092,2.5
84.003973,0.05214366666666665,7.201199666666667,6.872485666666666,-0.0018836666666666678,0.047238999999999996,-0.09763366666666666,0.188803,0.6797504999999999,0.057224,1,0,0,0,0,0,,,,,,,
84.253973,-0.072682,6.8627645,6.7544900000000005,0.0583355,-0.06704,-0.161798,0.32996833333333336,-0.4368066666666666,0.014531666666666684,1,0,0,0,0,0,,,,,,,
84.503973,-0.016451,5.943771000000001,7.27119,-0.0753635,0.0332915,0.1530935,-1.061723,0.15109150000000002,0.671792,1,0,0,0,0,0,,,,,,,
84.753973,-0.016451,5.943771,7.27119,0.006566666666666668,0.030796999999999995,-0.002952333333333316,0.08027899999999999,-0.01412066666666667,0.07364566666666665,1,0,0,0,0,0,52.338547999999996,4.948917,6.54725,3.94,245.100006,3.790092,2.5
85.003973,-0.016451,5.943771000000001,7.27119,0.023212000000000003,-0.05986299999999999,-0.011529499999999995,0.059369000000000005,-0.012554500000000024,-0.269604,1,0,0,0,0,0,,,,,,,
85.253973,-0.016451,5.943771,7.27119,-0.0067193333333333315,0.05385633333333334,0.06592066666666667,-0.35204700000000005,-0.17402649999999997,0.6678545,1,0,0,0,0,0,,,,,,,
85.503973,-0.30528466666666665,6.6868419999999995,6.662416,-0.0575725,0.0894125,0.08246400000000001,-0.471772,-0.16858733333333334,0.09149899999999993,1,0,0,0,0,0,,,,,,,
85.753973,-0.2814555,7.076473999999999,6.6575805,0.038636000000000004,0.0245105,-0.004963000000000002,0.0017044999999999977,-0.05638450000000003,-0.056864,1,0,0,0,0,0,52.338533,4.9488650000000005,6.4759709999999995,3.9,244.0,3.790092,2.5
86.003973,-0.3313063333333333,7.182555666666667,6.7528446666666655,0.017205333333333333,0.006006666666666667,-0.077985,0.017238666666666697,0.009350666666666655,0.08524266666666669,1,0,0,0,0,0,,,,,,,
86.253973,-0.2434695,7.357182,7.2469625,0.056274,-0.0997975,-0.14087650000000002,0.2875715,0.13480299999999998,0.6449374999999999,1,0,0,0,0,0,,,,,,,
86.503973,-0.5891326666666669,6.875477,6.9365939999999995,-0.0197,-0.038789000000000004,0.03044066666666667,0.361552,-0.2790705,-0.18910950000000004,1,0,0,0,0,0,,,,,,,
86.753973,-1.2131610000000002,6.840781,7.892128,0.015347499999999998,0.07070549999999999,0.06100800000000001,-0.6873376666666666,-0.2820013333333333,0.28374000000000005,1,0,0,0,0,0,,,,,,,
87.003973,-1.2131610000000002,6.840781,7.892128,-0.0009160000000000071,0.04726450000000001,0.1101815,-0.25453650000000005,0.086862,-0.6735735,1,0,0,0,0,0,52.338518,4.948814,6.573392999999999,3.93,242.899994,3.790092,2.5
87.253973,-1.2131610000000002,6.840781,7.892128,0.06490266666666668,-0.11132666666666664,-0.15205,0.4441545000000001,-0.5053845,1.5217035,1,0,0,0,0,0,,,,,,,
87.503973,-1.2131610000000002,6.840781,7.892128,-0.0734545,-0.033367499999999994,-0.034283499999999995,-0.003987000000000004,0.17393,-0.6279463333333334,1,0,0,0,0,0,,,,,,,
87.753973,-0.2594715,6.926773000000001,7.1246295,0.011911499999999998,0.0616955,0.1189625,0.1498205,-0.246834,0.4608829999999998,1,0,0,0,0,0,52.338502000000005,4.948763,6.553444,3.92,242.899994,3.790092,2.5
88.003973,-0.7823533333333333,6.8415783333333335,7.0766729999999995,0.001119666666666667,0.06383366666666666,-0.0019849999999999985,-0.4411243333333333,-0.35937833333333336,0.43921733333333335,1,0,0,0,0,0,,,,,,,
88.253973,-0.707976,7.1636625,6.739834,-0.067422,-0.0770435,-0.0198525,-0.264452,0.033134499999999956,0.03172749999999999,1,0,0,0,0,0,,,,,,,
88.503973,-0.32073799999999997,6.989435,7.147859333333334,0.027793333333333337,-0.08587466666666665,-0.015322333333333346,0.34250500000000006,-0.012425999999999993,0.2721185,1,0,0,0,0,0,,,,,,,
88.753973,-1.2430709999999998,6.937989,6.470192,-0.033902,0.0704765,0.12194050000000001,-0.22845099999999996,0.11478999999999999,0.322691,1,0,0,0,0,0,52.338487,4.948712,6.527880000000001,3.86,243.80000299999998,3.790092,2.5
89.003973,-1.2430709999999998,6.937988999999999,6.470192,-0.00817,0.026037,0.0434465,-0.09306599999999998,-0.15370850000000003,-0.1647695,1,0,0,0,0,0,,,,,,,
89.253973,-1.2430709999999998,6.937989,6.470192,0.023619333333333336,0.10216433333333334,0.018173000000000005,-0.296338,0.08780566666666667,0.233059,1,0,0,0,0,0,,,,,,,
89.503973,-1.2430709999999998,6.937988999999999,6.470192,0.062841,-0.075363,-0.15324649999999998,0.441015,-0.28020599999999996,0.17065699999999998,1,0,0,0,0,0,,,,,,,
89.753973,-1.2430709999999998,6.937989,6.470192,-0.06251033333333333,-0.02570666666666667,0.009672,-0.406195,0.1579425,-0.42294800000000005,1,0,0,0,0,0,52.338471000000006,4.948658999999999,6.49261,4.03,243.899994,3.790092,2.5
90.003973,-0.108674,7.091628333333333,7.327321,0.023975499999999997,-0.005573999999999996,-0.024357499999999997,0.438297,0.011987666666666666,0.5732923333333333,1,0,0,0,0,0,,,,,,,
90.253973,-0.7214360000000001,7.0345995,6.6729845,-0.0011450000000000002,0.0681855,0.069942,-0.21315499999999998,-0.059907000000000044,-0.06863399999999997,1,0,0,0,0,0,,,,,,,
90.503973,-0.6825526666666666,7.015257666666667,6.691727666666666,0.005650333333333329,-0.05920133333333333,-0.043726666666666664,0.32550950000000006,0.037170999999999954,-0.1846644999999999,1,0,0,0,0,0,,,,,,,
90.753973,-0.9541379999999999,7.033702,7.270143,0.014584,0.1138465,0.25426550000000003,-0.613167,-0.069845,0.354512,1,0,0,0,0,0,52.338454999999996,4.948605000000001,6.427432,4.0,243.69999700000002,3.790092,2.5
91.003973,0.867099,8.156533999999999,6.630211999999999,0.007559499999999999,-0.1678305,-0.498757,2.0308390000000003,0.42308049999999997,-0.2485005,1,0,0,0,0,0,,,,,,,
91.253973,0.867099,8.156533999999999,6.630211999999999,0.014253333333333331,0.043471666666666665,0.28531666666666666,-0.8706990000000001,-0.48279999999999995,0.04722966666666665,1,0,0,0,0,0,,,,,,,
91.503973,0.867099,8.156533999999999,6.630211999999999,0.017790999999999998,0.0794865,-0.05971,0.48747999999999997,0.525667,0.551512,1,0,0,0,0,0,,,,,,,
91.753973,0.867099,8.156533999999999,6.630211999999999,-0.019292333333333335,-0.040163,-0.057470333333333325,-0.16249249999999993,0.2240315,-0.4449645000000001,1,0,0,0,0,0,52.338440000000006,4.948551,6.410044999999999,4.03,243.600006,3.790092,2.5
92.003973,0.4362913333333333,7.763612666666666,7.157231333333333,0.010308,-0.041996,0.00985,0.30909666666666663,-0.09866433333333334,0.25623099999999993,1,0,0,0,0,0,,,,,,,
92.253973,0.07477599999999995,7.0930740000000005,6.7290659999999995,-0.009163000000000001,-0.0133625,-0.0786465,0.7589230000000002,0.11443700000000001,-0.11711449999999998,1,0,0,0,0,0,,,,,,,
92.503973,-0.3512466666666667,7.152545666666666,6.513063666666667,0.017918,0.05120933333333333,-0.012675,0.3555736666666667,0.18808633333333336,-0.3452546666666667,1,0,0,0,0,0,,,,,,,
92.753973,-1.100399,7.076025,7.2993055,0.012827999999999999,-0.078952,-0.054365000000000004,-0.265281,0.10475249999999994,0.4623614999999999,1,0,0,0,0,0,52.338423999999996,4.948497,6.31911,4.06,244.0,3.790092,2.5
93.003973,-0.469691,7.0562346666666675,7.030611333333333,-0.010740666666666667,-0.0014760000000000005,0.05945566666666666,-0.040522,0.0986375,-0.2719785,1,0,0,0,0,0,,,,,,,
93.253973,0.078365,7.05105,7.910073,0.006261000000000001,-0.049325999999999995,-0.1543155,0.6078263333333334,0.019858999999999998,0.5868556666666667,1,0,0,0,0,0,,,,,,,
93.503973,0.078365,7.05105,7.910073,0.029091500000000003,-0.048944499999999995,0.048791500000000015,0.11572349999999999,-0.3594200000000001,-0.16086849999999997,1,0,0,0,0,0,,,,,,,
93.753973,0.078365,7.05105,7.910073,-0.03629466666666667,0.059812333333333335,0.07472666666666668,-0.4158675,0.5837635,-0.056348999999999955,1,0,0,0,0,0,52.338408,4.948443,6.054531,4.08,244.80000299999998,3.790092,2.5
94.003973,0.078365,7.05105,7.910073,0.0035120000000000004,-0.006948500000000003,0.080021,-0.09939300000000002,-0.09983866666666667,0.133416,1,0,0,0,0,0,,,,,,,
94.253973,-0.0894315,7.3042405,7.0193449999999995,0.033901999999999995,-0.05014033333333332,-0.13092499999999999,0.305398,0.12378750000000001,-0.08257300000000001,1,0,0,0,0,0,,,,,,,
94.503973,-0.321336,6.928318333333333,6.851548666666667,-0.0025200000000000014,-0.07864650000000001,0.0277935,0.34385666666666664,-0.10746500000000003,0.06263233333333333,1,0,0,0,0,0,,,,,,,
94.753973,-0.534497,6.808777,7.0162045,0.028710000000000006,0.21081899999999998,0.31634249999999997,-0.1509155,-0.21660050000000003,0.19518850000000001,1,0,0,0,0,0,52.338394,4.948388,5.9757430000000005,4.1,245.600006,3.790092,2.5
95.003973,-0.08494533333333332,7.486942666666667,7.163114,-0.03094933333333333,-0.02769166666666667,-0.2073316666666667,0.794886,1.1497345,0.286023,1,0,0,0,0,0,,,,,,,
95.253973,-1.706382,6.726522999999999,6.481857,-0.039552000000000004,-0.07414150000000001,-0.0129045,-0.0746843333333334,-0.8300113333333333,-0.215693,1,0,0,0,0,0,,,,,,,
95.503973,-1.7063820000000003,6.726522999999999,6.481857000000001,0.128965,-0.183636,-0.004275999999999995,-0.08228049999999998,0.4180104999999999,0.39487150000000004,1,0,0,0,0,0,,,,,,,
95.753973,-1.706382,6.726522999999999,6.481857,-0.049937,0.15938033333333332,0.32028766666666664,-0.45706533333333327,0.09940833333333332,-0.47224,1,0,0,0,0,0,52.338378999999996,4.948333,5.8379959999999995,4.03,245.69999700000002,3.790092,2.5
96.003973,-1.7063820000000003,6.726522999999999,6.481857000000001,0.00664300000000001,0.119879,-0.0986515,0.17679399999999998,-0.1952184999999999,0.3846575,1,0,0,0,0,0,,,,,,,
96.253973,-1.706382,6.726522999999999,6.481857,0.023518,-0.05049666666666667,-0.045610000000000005,0.3692275,0.414304,-0.03749199999999997,1,0,0,0,0,0,,,,,,,
96.503973,-0.9017953333333333,6.7765733333333324,6.199903,-0.0933835,0.10376749999999998,0.159126,-0.6587943333333334,-0.685393,0.13380766666666663,1,0,0,0,0,0,,,,,,,
96.753973,0.047257999999999994,7.2966135,7.3323564999999995,0.08582400000000001,0.01069,-0.059329,0.40181999999999995,0.13969900000000002,0.6471515000000001,1,0,0,0,0,0,52.338364,4.9482800000000005,5.604728,3.98,244.600006,3.790092,2.5
97.003973,-0.028015999999999996,7.25115,6.401199666666667,0.007534000000000002,0.023059666666666662,-0.13306300000000001,0.5485629999999999,-0.132222,0.86935,1,0,0,0,0,0,,,,,,,
97.253973,-1.4810075,6.759424500000001,7.446763,0.010690000000000002,-0.041843000000000005,0.07612699999999999,-0.4040263333333333,-0.10826333333333334,-0.29915166666666665,1,0,0,0,0,0,,,,,,,
97.503973,-0.522832,7.192227,6.683752000000001,-0.009723,0.09040533333333332,0.05115833333333334,0.307115,0.2452495,-0.057570500000000004,1,0,0,0,0,0,,,,,,,
97.753973,-0.522832,7.192227000000001,6.683752,0.034436499999999995,-0.161187,-0.300155,0.4141086666666667,-0.39149300000000004,0.42768399999999995,1,0,0,0,0,0,52.338347,4.948226999999999,5.747985,3.97,242.69999700000002,3.790092,2.5
98.003973,-0.522832,7.192227,6.683752000000001,-0.0038940000000000008,-0.002901499999999998,0.16340149999999998,0.22921549999999996,-0.3097705,0.17176800000000003,1,0,0,0,0,0,,,,,,,
98.253973,-0.522832,7.192227000000001,6.683752,0.016391,0.016187333333333335,-0.062103,0.1272945,-0.33851849999999994,0.432287,1,0,0,0,0,0,,,,,,,
98.503973,-0.522832,7.192227,6.683752000000001,-0.0473405,-0.046653,-0.006260999999999996,0.10232800000000004,-0.006292999999999956,0.4221496666666667,1,0,0,0,0,0,,,,,,,
98.753973,-0.6984049999999999,6.5428745,6.7758755,-0.048944,-0.0200055,0.025197000000000004,-0.108072,-0.6368440000000001,0.13212849999999998,1,0,0,0,0,0,52.33833,4.948176,5.7346260000000004,3.96,242.399994,3.790092,2.5
99.003973,-0.19042899999999996,7.354838666666667,6.707281333333334,0.03827966666666666,-0.07711966666666667,-0.08027533333333334,0.42371333333333333,0.11023666666666666,0.13626366666666664,1,0,0,0,0,0,,,,,,,
99.253973,-0.42906299999999997,6.9429245,7.0452175,0.041156,0.0779595,0.15286450000000001,0.1184895,-0.35769049999999997,0.5309165,1,0,0,0,0,0,,,,,,,
99.503973,-0.3965106666666666,7.347660666666667,6.483951,0.010791666666666666,0.004224999999999997,-0.168899,-0.005749499999999963,0.06462999999999997,0.2030885,1,0,0,0,0,0,,,,,,,
99.753973,-1.057927,7.513463000000001,6.672685,0.00045799999999999997,-0.1990595,-0.0862825,0.07361166666666667,-0.220291,0.24347766666666668,1,0,0,0,0,0,52.338314000000004,4.948123000000001,5.967299,4.01,243.600006,3.790092,2.5
100.003973,-1.057927,7.513463000000001,6.672685,0.04421,-0.0613905,0.1385095,0.09143850000000002,-0.3664115,0.39824799999999994,1,0,0,0,0,0,,,,,,,
100.253973,-1.057927,7.513463000000001,6.672685,0.03629466666666666,0.013795000000000002,0.05685966666666666,-0.047089500000000006,0.0628,0.9280710000000001,1,0,0,0,0,0,,,,,,,
100.503973,-1.057927,7.513463000000001,6.672685,-0.100637,0.0195475,0.013209500000000002,0.06904133333333336,-0.3641703333333333,0.29727166666666666,1,0,0,0,0,0,,,,,,,
100.753973,-1.0179965,6.9822565,7.244121000000001,-0.017052666666666667,0.021074333333333334,-0.02514633333333333,-0.33380499999999996,-0.27429100000000006,0.05711349999999993,1,0,0,0,0,0,52.338299,4.948071,6.107444999999999,3.88,245.80000299999998,3.790092,2.5
101.003973,-0.6884350000000001,6.996015333333333,6.665606333333333,-0.0242045,-0.0678805,0.034513,-0.32062133333333337,-0.14660333333333334,-0.033749666666666574,1,0,0,0,0,0,,,,,,,
101.253973,-0.3601195,6.999454999999999,7.4965635,0.0365745,0.053296,0.1023935,-0.13016149999999996,-0.29699400000000004,0.9593740000000001,1,0,0,0,0,0,,,,,,,
101.503973,-0.109671,6.924130666666667,6.939783666666667,-0.041486666666666665,0.01567800000000001,0.032476999999999985,0.9278635,0.274159,-0.28904450000000004,1,0,0,0,0,0,,,,,,,
101.753973,-0.7217349999999999,6.9692454999999995,7.7843005000000005,0.0030539999999999873,0.11567950000000002,0.07589749999999999,-0.7318656666666667,-0.3976543333333334,0.5144290000000001,1,0,0,0,0,0,52.338285,4.948019,6.0159650000000005,3.84,246.399994,3.790092,2.5
102.003973,-0.295514,6.6888369999999995,6.771986999999999,0.086511,-0.0005345000000000003,-0.011988,-0.014679500000000002,-0.4429565,0.2017245,1,0,0,0,0,0,,,,,,,
102.253973,-0.295514,6.6888369999999995,6.771986999999999,0.035123666666666664,-0.029829999999999995,-0.010333666666666658,-0.09013066666666665,-0.39772,0.9297473333333333,1,0,0,0,0,0,,,,,,,
102.503973,-0.295514,6.6888369999999995,6.771986999999999,0.0024434999999999873,-0.096361,-0.13369949999999997,0.39363349999999997,-0.452986,-1.042864,1,0,0,0,0,0,,,,,,,
102.753973,-0.295514,6.6888369999999995,6.771986999999999,-0.048918666666666666,0.16609933333333335,0.17928366666666665,-0.18274750000000006,-0.533104,1.5245975,1,0,0,0,0,0,52.33827,4.947968,5.9889980000000005,3.9,245.30000299999998,3.790092,2.5
103.003973,-0.7879366666666666,6.913761999999999,7.673083999999999,0.006414000000000001,-0.007559000000000003,-0.135379,-0.13712833333333332,-0.3851016666666666,1.463593666666667,1,0,0,0,0,0,,,,,,,
103.253973,-0.57682,7.284201,4.30394,-0.0769665,0.0659715,0.006948500000000003,0.03771499999999994,-0.2694629999999999,-1.9091434999999999,1,0,0,0,0,0,,,,,,,
103.503973,-0.25583266666666665,6.588537333333334,6.578168666666667,0.11860633333333333,-0.05889566666666667,-0.147825,1.208941,-0.3049639999999999,-1.5340635,1,0,0,0,0,0,,,,,,,
103.753973,-0.694218,7.654489999999999,6.9001525,-0.1588205,-0.1269035,-0.0732255,-0.04648466666666665,-0.6746766666666667,1.8796179999999998,1,0,0,0,0,0,,,,,,,
104.003973,0.662513,6.143273000000001,5.406583,0.08276966666666666,-0.011554999999999996,0.09025266666666669,0.6292725,-0.939718,0.4979929999999999,1,0,0,0,0,0,52.338254,4.9479169999999995,6.255669999999999,3.97,243.30000299999998,3.790092,2.5
104.253973,0.662513,6.143273000000001,5.406583,0.004810500000000002,0.024434000000000004,0.018096499999999995,-0.018938999999999994,-0.46889833333333336,0.5677343333333333,1,0,0,0,0,0,,,,,,,
104.503973,0.662513,6.143273000000001,5.406583,-0.0500895,-0.0960555,-0.0518455,-0.0771725,-0.324343,-0.41027100000000005,1,0,0,0,0,0,,,,,,,
104.753973,0.662513,6.143273000000001,5.406583,0.039654333333333326,0.01013,0.20753500000000003,-0.11202500000000004,-1.065685,2.7929225,1,0,0,0,0,0,,,,,,,
105.003973,0.662513,6.143273000000001,5.406583,-0.11796999999999998,0.1195735,-0.038865,0.18842766666666666,-0.44181866666666664,-0.5500059999999998,1,0,0,0,0,0,52.338237,4.947865,6.020936,4.05,243.899994,3.790092,2.5
105.253973,-0.20817549999999996,7.647461,5.7180985,0.014660000000000006,0.026342499999999998,-0.1699685,0.35508000000000006,0.14410300000000004,-0.5600514999999999,1,0,0,0,0,0,,,,,,,
105.503973,-1.1607183333333333,7.000800666666667,6.674080666666666,-0.029422666666666653,0.03466566666666666,0.10486233333333334,-0.6761166666666667,-0.592771,0.5006476666666666,1,0,0,0,0,0,,,,,,,
105.753973,-0.0759725,6.97448,5.9300125,0.10682199999999999,0.05146350000000001,0.114687,0.236098,-0.5797129999999999,-0.305085,1,0,0,0,0,0,52.338221000000004,4.947813,6.052805,3.98,243.899994,3.790092,2.5
106.003973,0.3921240000000001,7.124529333333334,7.553543000000001,0.029269666666666666,-0.031560333333333336,-0.16467400000000001,0.6068560000000001,-0.9363784999999999,1.465168,1,0,0,0,0,0,,,,,,,
106.253973,0.9296120000000001,8.140083,7.280163000000001,0.025655499999999998,-0.0148895,-0.090482,0.480241,-0.363121,0.41312366666666667,1,0,0,0,0,0,,,,,,,
106.503973,0.9296120000000001,8.140083,7.280163000000001,-0.013362500000000003,0.0400865,0.032756499999999994,0.154472,-0.41325399999999995,-0.011243000000000059,1,0,0,0,0,0,,,,,,,
106.753973,0.9296120000000001,8.140083,7.280163000000001,-0.037872333333333334,-0.104455,-0.052533,-0.28129033333333336,-0.3267023333333334,1.3350570000000002,1,0,0,0,0,0,52.338205,4.947762,6.056475,4.01,244.30000299999998,3.790092,2.5
107.003973,0.9296120000000001,8.140083,7.280163000000001,-0.050929499999999996,0.0998735,0.2115055,-0.17114000000000001,-1.0015775,-0.263841,1,0,0,0,0,0,,,,,,,
107.253973,0.9296120000000001,8.140083,7.280163000000001,0.08714766666666668,-0.09457933333333335,-0.20107066666666665,1.2560795,0.0757565,0.5713655,1,0,0,0,0,0,,,,,,,
107.503973,-0.9981059999999999,6.7718869999999995,6.960721333333335,-0.0161875,0.1060585,0.21906550000000002,-0.33487433333333333,-0.6694586666666665,0.618931,1,0,0,0,0,0,,,,,,,
107.753973,0.25334049999999997,7.355387,6.5081785,0.0254265,0.0016034999999999999,-0.128507,0.8841970000000001,-0.10029450000000001,0.17919949999999996,1,0,0,0,0,0,52.338189,4.947711,6.203579,3.96,243.69999700000002,3.790092,2.5
108.003973,-0.9920243333333332,7.149654000000001,6.932106666666667,-0.010231666666666667,-0.086893,-0.00040733333333333593,-0.381163,-0.145799,0.0992605,1,0,0,0,0,0,,,,,,,
108.253973,0.466451,7.4149085,6.668049,0.022219500000000003,-0.08223550000000002,-0.06055,0.6160803333333332,-0.16085133333333332,0.6751846666666667,1,0,0,0,0,0,,,,,,,
108.503973,-0.43100733333333324,7.586543999999999,6.574280333333333,0.0030539999999999994,0.0012979999999999936,0.03581100000000001,-0.4500350000000001,-0.3520964999999999,0.21510100000000001,1,0,0,0,0,0,,,,,,,
108.753973,0.396012,8.705089,6.419345,0.009009666666666668,0.040876,0.07386133333333333,-0.1667776666666667,-0.4724913333333332,0.6402706666666667,1,0,0,0,0,0,52.338173,4.94766,6.202857,3.85,245.30000299999998,3.790092,2.5
109.003973,0.396012,8.705089,6.419345,-0.032985499999999994,0.1112505,0.21738500000000002,-0.827605,-0.38605849999999997,0.0016944999999999877,1,0,0,0,0,0,,,,,,,
109.253973,0.396012,8.705089,6.419345,-0.021277666666666667,-0.019292666666666666,-0.130314,0.24328050000000004,-0.12786150000000004,-0.09241550000000001,1,0,0,0,0,0,,,,,,,
109.503973,0.3562313333333333,8.608778,6.353741666666667,0.040163500000000005,-0.06337550000000002,-0.06100849999999999,0.194419,0.08814666666666666,0.654927,1,0,0,0,0,0,,,,,,,
109.753973,-0.605085,6.8555865,6.661618,0.022906999999999997,0.034513,0.157675,-0.3732724999999999,-0.42779000000000006,0.10896849999999997,1,0,0,0,0,0,52.338159999999995,4.94761,6.02422,3.71,246.5,3.790092,2.5
110.003973,-0.2232303333333333,6.933502666666667,6.787640333333333,-0.011657,0.04759533333333333,-0.017511,0.067452,-0.32602533333333333,0.21081399999999997,1,0,0,0,0,0,,,,,,,
110.253973,-0.785444,7.192375999999999,6.829714,-0.0383305,0.002062000000000005,0.045661,-0.421731,-0.0829855,0.2740765,1,0,0,0,0,0,,,,,,,
110.503973,-0.5870393333333332,6.999804,6.403193666666667,-0.017765333333333334,0.11265033333333334,0.13794966666666666,-1.5815555,-0.3450625,0.23356899999999994,1,0,0,0,0,0,,,,,,,
110.753973,1.51675,7.278069,5.459225,0.0556635,0.019089000000000002,-0.1798185,0.8940953333333334,0.008956,0.2678336666666667,1,0,0,0,0,0,52.338145000000004,4.9475620000000005,6.092042,3.66,245.100006,3.790092,2.5
111.003973,1.51675,7.2780689999999995,5.459225,0.021914,-0.148207,-0.3025225,0.602929,0.13554300000000002,0.027711499999999945,1,0,0,0,0,0,,,,,,,
111.253973,1.51675,7.278069,5.459225,0.004224666666666667,0.059812333333333335,0.09722633333333335,-0.22878300000000007,-0.763504,0.9179925,1,0,0,0,0,0,,,,,,,
111.503973,1.51675,7.2780689999999995,5.459225,0.0245865,-0.1286595,-0.1843995,0.298073,0.11406100000000001,0.13577333333333336,1,0,0,0,0,0,,,,,,,
111.753973,0.03574250000000001,7.0051375,6.24437,-0.029626,-0.08338050000000001,0.158133,-0.8788689999999999,-0.1731195,0.0035014999999999907,1,0,0,0,0,0,52.33813,4.947514,6.216689,3.69,244.5,3.790092,2.5
112.003973,-0.07258233333333335,7.2299136666666675,6.860322,0.014864,0.043065,0.028811999999999994,0.24198466666666665,0.061853333333333316,0.18535100000000004,1,0,0,0,0,0,,,,,,,
112.253973,-0.285045,7.203592499999999,6.512665,-0.0163405,-0.0403155,-0.069789,0.2588325,0.043691,-0.15661499999999998,1,0,0,0,0,0,,,,,,,
112.503973,-0.6108676666666667,7.094918333333333,6.871488666666667,0.021074333333333334,0.034512999999999995,-0.028251666666666675,-0.0879795,-0.45770500000000003,0.6492344999999999,1,0,0,0,0,0,,,,,,,
112.753973,-0.338285,6.8733830000000005,7.4832529999999995,0.0032835000000000004,-0.125529,-0.07505800000000001,0.04356500000000002,0.13040866666666667,0.110388,1,0,0,0,0,0,52.338115,4.947466,6.437709,3.67,244.30000299999998,3.790092,2.5
113.003973,-0.338285,6.8733830000000005,7.483253,-0.005268500000000002,-0.0471115,0.2384595,-0.929368,-0.5617245,0.5772155,1,0,0,0,0,0,,,,,,,
113.253973,-0.338285,6.8733830000000005,7.4832529999999995,-0.005752,0.07075633333333332,0.099619,0.09252833333333337,0.09245733333333334,0.212951,1,0,0,0,0,0,,,,,,,
113.503973,-0.338285,6.8733830000000005,7.483253,-0.01718,0.089642,0.080097,-0.347927,0.0063840000000000285,-0.46988549999999996,1,0,0,0,0,0,,,,,,,
113.753973,-0.338285,6.8733830000000005,7.4832529999999995,-0.006974000000000001,0.19847433333333334,0.07885033333333333,-0.1631,-0.27276849999999997,0.494149,1,0,0,0,0,0,52.338101,4.947418,6.608865,3.61,245.0,3.790092,2.5
114.003973,0.0785643333333333,7.2003026666666665,6.451548333333332,0.058565,-0.0878095,-0.455005,0.668948,0.27027133333333336,-0.04996033333333331,1,0,0,0,0,0,,,,,,,
114.253973,-1.3040885,6.8063839999999995,7.360173,0.06948399999999999,-0.28198199999999995,-0.2599155,-0.29284000000000004,-0.40643900000000005,0.8038825,1,0,0,0,0,0,,,,,,,
114.503973,-0.6919243333333333,7.0700926666666675,7.094619333333334,-0.010384333333333334,-0.08842033333333332,0.15795499999999998,-0.15835300000000005,-0.39563149999999997,0.261826,1,0,0,0,0,0,,,,,,,
114.753973,-0.17422750000000004,7.099953500000001,6.500252,-0.031382,0.18959149999999997,0.3219165,-0.020282333333333336,-0.09930700000000002,0.38445633333333334,1,0,0,0,0,0,,,,,,,
115.003973,0.8000003333333332,6.554539666666666,7.803493333333333,0.023721333333333334,0.035378,-0.19638733333333333,0.7897095,-0.3143525,0.4203955,1,0,0,0,0,0,52.338086,4.947369,6.653433000000001,3.69,244.0,3.790092,2.5
115.253973,1.2975079999999999,6.2297139999999995,7.864311,0.034283999999999995,-0.067651,-0.11865699999999998,-0.2341383333333333,0.07030166666666669,0.11934966666666669,1,0,0,0,0,0,,,,,,,
115.503973,1.2975079999999999,6.229713999999999,7.864311,0.0007635000000000003,-0.2250975,-0.0670405,-0.3463845000000001,-0.1475595,0.053194999999999965,1,0,0,0,0,0,,,,,,,
115.753973,1.2975079999999999,6.2297139999999995,7.864311,-0.04123233333333333,-5.133333333332916e-05,0.27691733333333335,-0.138108,-0.17826450000000002,0.1181315,1,0,0,0,0,0,52.338072,4.947319,6.470828,3.69,244.600006,3.790092,2.5
116.003973,1.104188,6.706583666666667,7.815457666666667,-0.008933499999999999,0.11934449999999999,0.0968195,0.05316833333333334,0.025612000000000006,0.42560400000000004,1,0,0,0,0,0,,,,,,,
116.253973,-0.32123650000000004,6.6581785,6.9749285,0.068644,0.13278299999999998,0.0762795,-0.2937375000000001,-0.580547,0.36904899999999996,1,0,0,0,0,0,,,,,,,
116.503973,-0.28713866666666665,7.3088766666666665,6.341578000000001,0.004835666666666664,0.12013333333333336,-0.03410566666666666,-0.030428333333333318,0.015045333333333364,-0.19702666666666668,1,0,0,0,0,0,,,,,,,
116.753973,-0.7833505000000001,7.402196999999999,6.713661999999999,-0.036956,-0.093307,-0.1358375,-0.2696455,0.16168849999999996,0.1295195,1,0,0,0,0,0,52.338058000000004,4.94727,6.4130400000000005,3.68,244.30000299999998,3.790092,2.5
117.003973,-0.32991066666666663,7.100801,6.969594666666667,0.014609333333333337,0.023059333333333334,0.014711666666666665,-0.1109295,-0.08687699999999998,0.5501775,1,0,0,0,0,0,,,,,,,
117.253973,0.10289100000000001,6.945766000000001,6.683453,0.038636000000000004,-0.0813955,-0.1905845,0.6983990000000001,0.15499100000000002,-0.23309766666666665,1,0,0,0,0,0,,,,,,,
117.503973,0.10289100000000001,6.945766000000002,6.683453,-0.0135915,0.1504975,0.331843,-1.2783205,-0.9899199999999999,1.3306895,1,0,0,0,0,0,,,,,,,
117.753973,0.10289100000000001,6.945766000000001,6.683453,0.011097000000000001,-0.03044066666666666,-0.11356700000000002,1.244591,0.4195024999999999,-0.2947804999999999,1,0,0,0,0,0,52.338042,4.9472190000000005,6.44137,3.81,244.0,3.790092,2.5
118.003973,0.10289100000000001,6.945766000000002,6.683453,-0.0486385,-0.088726,-0.067804,-0.34379133333333334,0.17222033333333334,-0.4990323333333333,1,0,0,0,0,0,,,,,,,
118.253973,-0.997209,7.1062345,6.667152,0.027946333333333333,0.04107933333333333,0.07971566666666667,-0.31799050000000006,-0.23126000000000002,0.940647,1,0,0,0,0,0,,,,,,,
118.503973,0.6653043333333333,7.268796666666667,6.683452666666667,-0.0041995,-0.097354,-0.29076349999999995,1.3538996666666667,0.13447366666666666,0.0015546666666666764,1,0,0,0,0,0,,,,,,,
118.753973,-0.8926725,6.835397,7.26117,0.024968,0.026037499999999998,0.006719500000000003,-0.060091500000000006,-0.30547499999999994,0.601112,1,0,0,0,0,0,52.338026,4.9471680000000005,6.301547,3.81,242.80000299999998,3.790092,2.5
119.003973,-0.938186,7.211369333333334,6.584848333333333,-0.004123333333333334,-0.035582,0.048308,-0.1092455,0.122214,-0.299046,1,0,0,0,0,0,,,,,,,
119.253973,-0.044267,7.2910805,6.709175999999999,0.005879500000000003,-0.0900235,-0.083457,0.4276786666666666,-0.007444333333333349,0.25609466666666664,1,0,0,0,0,0,,,,,,,
119.503973,-0.872184,6.749853999999999,6.945467,-0.0110715,-0.098041,-0.006796,-0.137608,-0.24976999999999996,0.1551995,1,0,0,0,0,0,,,,,,,
119.753973,-0.872184,6.749853999999999,6.945467,-0.0001526666666666667,0.04983500000000001,0.007940999999999995,0.7731020000000001,-0.07516000000000002,0.46082,1,0,0,0,0,0,52.338011,4.9471169999999995,6.357526999999999,3.77,244.69999700000002,3.790092,2.5
120.003973,-0.872184,6.749853999999999,6.945467,0.011606,0.0335205,0.036421499999999996,-0.0087005,-0.31445949999999995,0.475549,1,0,0,0,0,0,,,,,,,
120.253973,-0.872184,6.749853999999999,6.945467,-0.010282666666666667,-0.11957333333333332,-0.017968999999999995,0.18892550000000002,0.17759000000000003,-0.1708405,1,0,0,0,0,0,,,,,,,
120.503973,-0.8329016666666668,6.780760999999999,7.037590333333333,-0.003054499999999999,0.0597865,0.2812185,-0.7387019999999999,-0.6242266666666667,0.6170853333333334,1,0,0,0,0,0,,,,,,,
120.753973,0.22013999999999995,7.5179495,6.6619175,0.0012979999999999997,0.10476,0.11254850000000001,0.34354750000000006,0.20384200000000002,0.14055,1,0,0,0,0,0,52.337996000000004,4.947065,6.3085260000000005,3.88,245.80000299999998,3.790092,2.5
121.003973,0.16839466666666666,6.971289666666666,7.0987073333333335,0.033393,0.169154,-0.03059366666666667,0.5622550000000001,-0.30338,0.544975,1,0,0,0,0,0,,,,,,,
121.253973,-0.31630149999999996,7.530661500000001,6.396164000000001,0.018478500000000002,-0.102088,-0.425226,0.603903,0.309076,-0.16302200000000003,1,0,0,0,0,0,,,,,,,
121.503973,-1.1240286666666668,6.805586666666667,6.678966666666667,0.01089366666666667,-0.20381966666666665,-0.0057519999999999976,0.11539899999999997,-0.30916599999999994,0.2375145,1,0,0,0,0,0,,,,,,,
121.753973,-1.4102700000000001,6.680761,6.39781,-0.0342075,0.0753635,0.40430449999999996,-0.7168673333333334,-0.41411599999999993,0.4373043333333333,1,0,0,0,0,0,52.337982000000004,4.947012,6.38837,3.85,246.30000299999998,3.790092,2.5
122.003973,-1.41027,6.680761,6.39781,0.0216085,0.0165695,-0.0652845,1.0611675,0.19548600000000002,0.3311655,1,0,0,0,0,0,,,,,,,
122.253973,-1.4102700000000001,6.680761,6.39781,-0.003817666666666666,0.144618,0.09015066666666667,-0.2381205,-0.0690365,0.021014500000000005,1,0,0,0,0,0,,,,,,,
122.503973,-1.41027,6.680761,6.39781,0.015118499999999998,0.08895449999999999,-0.050470999999999995,0.12199,-0.12112066666666665,0.301599,1,0,0,0,0,0,,,,,,,
122.753973,-0.2857925,7.5586275,6.3014985,-0.008781,-0.164318,-0.3368825,0.5496129999999999,0.45421600000000006,-0.3967069999999999,1,0,0,0,0,0,52.337967,4.946961,6.385878,3.75,245.0,3.790092,2.5
123.003973,-0.9869396666666667,6.810870666666666,7.009275666666667,0.010588,-0.07615233333333334,0.148945,-0.3923006666666667,-0.28974700000000003,0.282835,1,0,0,0,0,0,,,,,,,
123.253973,-0.17258250000000003,7.160073000000001,6.74103,-0.0452025,0.094223,0.2624355,0.14572300000000005,0.07328650000000003,-0.01952100000000001,1,0,0,0,0,0,,,,,,,
123.503973,0.20618166666666668,7.330013666666666,6.927122000000001,0.031815,0.1735823333333333,-0.05421266666666669,0.08389999999999997,0.20165450000000001,0.17408200000000001,1,0,0,0,0,0,,,,,,,
123.753973,-0.553041,7.171588000000001,6.598807000000001,0.009621,-0.044668,-0.2137965,0.43692133333333333,0.102624,0.0024019999999999944,1,0,0,0,0,0,52.337952,4.946911,6.3791139999999995,3.7,244.100006,3.790092,2.5
124.003973,-0.553041,7.171588000000001,6.598807000000001,0.0035120000000000012,-0.0335965,0.032375,0.0323485,-0.09076650000000001,0.13946099999999997,1,0,0,0,0,0,,,,,,,
124.253973,-0.553041,7.171588000000001,6.598807000000001,0.03517433333333333,-0.07034933333333333,-0.12486733333333333,0.6207723333333333,0.13195633333333334,0.03799133333333332,1,0,0,0,0,0,,,,,,,
124.503973,-0.553041,7.171588000000001,6.598807000000001,-0.0229835,-0.1032335,-0.006643,0.3196295,0.0212085,0.122197,1,0,0,0,0,0,,,,,,,
124.753973,-0.553041,7.171588000000001,6.598807000000001,0.030389666666666666,0.04082466666666667,0.02092166666666666,0.5682005,0.001729999999999999,0.240708,1,0,0,0,0,0,52.337936,4.946861,6.418369,3.81,243.399994,3.790092,2.5
125.003973,-0.7266203333333333,7.090232333333334,6.727520666666666,-0.012599000000000003,-0.0613135,0.013972999999999992,-0.06278266666666667,-0.018490000000000017,0.014599333333333325,1,0,0,0,0,0,,,,,,,
125.253973,-1.473979,7.150202500000001,6.9315584999999995,-0.0382545,0.048333,0.16042350000000002,-1.0361345000000002,0.059336,0.18156850000000002,1,0,0,0,0,0,,,,,,,
125.503973,0.06191433333333333,7.2003026666666665,6.789335,0.02153233333333333,-0.09427400000000001,-0.06439333333333333,0.7298214999999999,0.0964575,0.12647650000000002,1,0,0,0,0,0,,,,,,,
125.753973,0.12996000000000002,6.891479,7.074978,-0.0091625,0.024280999999999997,0.010307999999999998,0.31619233333333335,-0.11755199999999999,0.19856399999999996,1,0,0,0,0,0,52.337920000000004,4.946812,6.716414,3.75,244.100006,3.790092,2.5
126.003973,0.334098,6.588038999999999,8.011768,-0.037185499999999996,0.0346655,0.07238549999999999,-0.36980849999999993,0.1404245,-0.10662249999999995,1,0,0,0,0,0,,,,,,,
126.253973,0.334098,6.588039,8.011768,0.005803,0.1679826666666667,0.13922233333333334,-0.307994,0.08791399999999998,-0.044971000000000004,1,0,0,0,0,0,,,,,,,
126.503973,0.334098,6.588038999999999,8.011768,0.017333,-0.17645850000000002,-0.3839935,0.7167105,0.5698779999999999,-0.362554,1,0,0,0,0,0,,,,,,,
126.753973,0.334098,6.588039,8.011768,0.006770000000000001,-0.0033090000000000016,0.06683700000000001,-0.417514,-0.701913,0.49662300000000004,1,0,0,0,0,0,52.337905,4.946763,6.7759350000000005,3.72,244.80000299999998,3.790092,2.5
127.003973,0.308774,7.025028,7.508677333333334,0.024815499999999997,-0.2373905,-0.34459399999999996,1.004372,0.37089833333333333,0.183623,1,0,0,0,0,0,,,,,,,
127.253973,-1.8257240000000001,6.2986569999999995,6.945167499999999,-0.008552,0.10407350000000001,0.4104895,-1.3920355,-0.784961,0.1880585,1,0,0,0,0,0,,,,,,,
127.503973,-0.36410766666666666,7.333702333333334,6.9186473333333325,-0.009519,0.13555733333333334,0.2557413333333333,-0.2355573333333333,0.20519733333333334,0.19535933333333336,1,0,0,0,0,0,,,,,,,
127.753973,-0.355185,7.8270725,6.09093,0.012064500000000002,0.0869695,-0.070782,-0.214537,0.719549,-0.6534145,1,0,0,0,0,0,52.337891,4.946714,6.990487,3.71,245.19999700000002,3.790092,2.5
128.003973,-0.12452666666666663,7.179963666666667,7.1444703333333335,0.027844333333333332,-0.059659666666666666,-0.22234866666666667,0.6689004999999999,-0.15297449999999999,0.43701349999999994,1,0,0,0,0,0,,,,,,,
128.253973,-0.651446,7.5622169999999995,7.180263,-0.0388655,-0.08101349999999999,-0.13316450000000002,0.56577,-0.1297596666666667,0.16901533333333332,1,0,0,0,0,0,,,,,,,
128.503973,-0.651446,7.5622169999999995,7.180263,0.0027489999999999997,0.03665099999999999,0.16424149999999998,-0.3813985,-0.5302800000000001,0.31244099999999997,1,0,0,0,0,0,,,,,,,
128.753973,-0.651446,7.5622169999999995,7.180263,0.0020873333333333364,0.06434266666666666,0.049427666666666675,-0.4071565,0.262808,-0.08013800000000001,1,0,0,0,0,0,,,,,,,
129.003973,-0.651446,7.5622169999999995,7.180263,-0.019776,-0.093307,-0.040621,-0.189987,0.10720866666666669,0.17495966666666665,1,0,0,0,0,0,52.337876,4.9466660000000005,6.825888000000001,3.71,245.19999700000002,3.790092,2.5
129.253973,0.0308075,7.102795,6.8116185,0.0543655,-0.019470500000000005,-0.0348945,0.448353,-0.014957000000000054,0.08839750000000007,1,0,0,0,0,0,,,,,,,
129.503973,-0.23200400000000002,7.197411333333332,6.657929333333333,-0.008043000000000002,-0.04840933333333333,-0.075389,0.2779466666666667,0.12833433333333336,-0.11025366666666668,1,0,0,0,0,0,,,,,,,
129.753973,-0.6649054999999999,6.671638,7.248009499999999,0.010461,0.0752105,0.15897299999999998,-0.16935999999999996,-0.3619725,0.44205900000000004,1,0,0,0,0,0,52.337862,4.946619,6.833958,3.63,245.30000299999998,3.790092,2.5
130.003973,-0.5638089999999999,7.422935,6.715656333333333,-0.016339999999999997,0.10155333333333333,0.09773566666666667,-0.5942875,0.2740765,-0.184477,1,0,0,0,0,0,,,,,,,
130.253973,-0.08584299999999999,7.442276,6.149853,-0.0005344999999999968,-0.1365245,-0.20807000000000003,0.24427266666666667,0.21732166666666666,0.014981999999999976,1,0,0,0,0,0,,,,,,,
130.503973,-0.08584299999999999,7.442276,6.149853,-0.0171805,-0.048104,0.058412500000000006,0.03302550000000004,-0.265878,0.1558425,1,0,0,0,0,0,,,,,,,
130.753973,-0.08584299999999999,7.442276,6.149853,0.011860999999999998,0.014558333333333335,0.062052,0.33552966666666667,0.09077599999999998,0.04411966666666667,1,0,0,0,0,0,52.337848,4.946572,6.806017999999999,3.61,244.69999700000002,3.790092,2.5
131.003973,-0.08584299999999999,7.442276,6.149853,-0.0053444999999999986,0.162638,0.070095,-0.15935699999999997,-0.0945915,0.1868095,1,0,0,0,0,0,,,,,,,
131.253973,-0.08584299999999999,7.442276,6.149853,0.010231666666666667,0.051158333333333326,0.004276000000000002,-0.437651,0.18537550000000003,-0.11259449999999999,1,0,0,0,0,0,,,,,,,
131.503973,-0.46929233333333337,7.418348333333334,6.772186333333334,-0.011988000000000002,-0.13705900000000001,-0.0868165,0.16418733333333335,0.314548,0.05117866666666666,1,0,0,0,0,0,,,,,,,
131.753973,-0.6833004999999999,6.7712395,6.784549500000001,0.010919000000000002,-0.002061499999999994,0.07375999999999999,-0.3229295000000001,-0.362622,0.07502850000000003,1,0,0,0,0,0,52.337833,4.946526,6.650575,3.57,243.100006,3.790092,2.5
132.003973,0.364307,7.057131666666667,7.176773000000001,-0.0068720000000000005,0.03710866666666667,0.034818,0.46662800000000004,0.029489500000000002,0.046130000000000004,1,0,0,0,0,0,,,,,,,
132.253973,-0.43818549999999995,7.278817,6.584001,0.041003,0.09009999999999999,-0.082388,0.4684646666666666,0.037236333333333343,0.3210416666666666,1,0,0,0,0,0,,,,,,,
132.503973,-0.125025,7.118049000000002,7.118049000000002,0.009060666666666667,-0.0035123333333333304,-0.15138833333333332,-0.1504455,-0.16109199999999999,-0.11927649999999998,1,0,0,0,0,0,,,,,,,
132.753973,-0.125025,7.118049000000001,7.118049000000001,0.040010500000000004,-0.2730485,-0.251669,0.593544,0.20829866666666666,0.212637,1,0,0,0,0,0,,,,,,,
133.003973,-0.125025,7.118049000000002,7.118049000000002,-0.010689999999999998,-0.0143545,0.373533,-1.093262,-0.4133295,0.291298,1,0,0,0,0,0,52.337817,4.946482,6.831678999999999,3.6,242.0,3.790092,2.5
133.253973,-0.125025,7.118049000000001,7.118049000000001,-5.0999999999997804e-05,-0.06907666666666668,-0.12181333333333333,1.149047,0.1736715,0.1072175,1,0,0,0,0,0,,,,,,,
133.503973,-0.565803,6.899504666666668,7.1301130000000015,-0.014354500000000003,0.2500655,0.397051,-0.3225813333333334,-0.22246033333333334,0.29774433333333333,1,0,0,0,0,0,,,,,,,
133.753973,0.190977,7.7059359999999995,6.488885999999999,0.022830500000000004,0.0668875,-0.180429,0.627132,0.55406,-0.1955905,1,0,0,0,0,0,,,,,,,
134.003973,-0.6005986666666666,7.073083666666666,6.753742,0.0004070000000000005,-0.126547,-0.25049799999999994,0.23013566666666666,-0.05353566666666664,0.07890533333333333,1,0,0,0,0,0,52.337801,4.946437,6.895230000000001,3.53,242.69999700000002,3.790092,2.5
134.253973,-0.805035,6.7948685,6.858727,0.0423775,-0.246782,-0.0869695,-0.017140000000000002,-0.283272,0.12721,1,0,0,0,0,0,,,,,,,
134.503973,-0.7092726666666667,7.228218666666667,6.701498333333333,-0.019343333333333334,0.03736366666666666,0.25090566666666664,-0.5199185,0.08804799999999999,-0.03423750000000003,1,0,0,0,0,0,,,,,,,
134.753973,-0.378066,7.3908309999999995,6.59761,-0.001222,0.037491000000000003,-0.0312295,0.529948,0.28423566666666666,0.0903456666666667,1,0,0,0,0,0,,,,,,,
135.003973,-0.378066,7.3908309999999995,6.59761,0.0,0.1186575,0.1366775,-0.7430650000000001,0.06888199999999994,0.05209999999999998,1,0,0,0,0,0,52.337787,4.946391,6.942058,3.65,245.0,3.790092,2.5
135.253973,-0.378066,7.3908309999999995,6.59761,0.013336999999999996,0.07437066666666665,0.075796,-0.39557449999999994,0.03856999999999999,-0.12542999999999999,1,0,0,0,0,0,,,,,,,
135.503973,-0.378066,7.3908309999999995,6.59761,0.0346655,0.0436755,0.04176650000000001,-0.20539866666666665,-0.03820133333333331,0.11149700000000003,1,0,0,0,0,0,,,,,,,
135.753973,0.267697,7.5593755,6.475576,-0.010486333333333334,-0.109087,-0.21669799999999997,0.8040174999999999,0.558464,-0.226703,1,0,0,0,0,0,,,,,,,
136.003973,-0.6178469999999999,7.1678,6.695217333333335,-0.035199999999999995,0.1404185,0.140724,-0.11916333333333329,0.10789066666666668,-0.08305866666666666,1,0,0,0,0,0,52.337773,4.946344,7.067866,3.53,246.100006,3.790092,2.5
136.253973,0.050697999999999965,7.285547,6.87772,0.0432175,0.049784,-0.16943350000000001,0.7794875,0.1740315,0.174862,1,0,0,0,0,0,,,,,,,
136.503973,-0.9189433333333333,7.285247333333333,6.451947333333334,0.007483,-0.127565,-0.16569233333333333,-0.050395999999999996,0.06689750000000003,-0.0689495,1,0,0,0,0,0,,,,,,,
136.753973,-1.1172985,6.6278195,7.310372,0.028710000000000003,-0.15996600000000002,0.1479775,-0.3165076666666667,-0.18683300000000003,0.2065353333333333,1,0,0,0,0,0,,,,,,,
137.003973,-0.766002,6.483951,7.475178,-0.0608555,0.04291199999999999,0.287098,-0.32345899999999994,0.11554399999999998,-0.25290450000000003,1,0,0,0,0,0,52.337759000000005,4.946296,7.065194,3.76,246.399994,3.790092,2.5
137.253973,-0.7660020000000001,6.483951,7.475178,0.010130333333333333,0.042809999999999994,-0.19104233333333331,1.094462,0.30497833333333335,0.025206000000000003,1,0,0,0,0,0,,,,,,,
137.503973,-0.766002,6.483951,7.475178,0.02703,0.07887549999999999,0.11354149999999999,-0.9860165000000001,-0.141038,0.031571499999999975,1,0,0,0,0,0,,,,,,,
137.753973,-0.7660020000000001,6.483951,7.475178,-0.013540333333333333,-0.15658033333333332,-0.103844,0.08409749999999999,0.31244000000000005,-0.256358,1,0,0,0,0,0,,,,,,,
138.003973,-1.10678,6.6713890000000005,7.116753,0.009773999999999998,0.0786465,0.42400400000000005,-1.4630773333333336,-0.22626133333333331,0.14850699999999997,1,0,0,0,0,0,52.337745,4.9462459999999995,6.9353229999999995,3.84,246.0,3.790092,2.5
138.253973,0.7784150000000001,7.4742805,6.7230834999999995,0.015194999999999998,-0.022754500000000004,-0.095063,0.6677465,0.37727150000000004,-0.03381,1,0,0,0,0,0,,,,,,,
138.503973,-0.20558333333333337,7.169694,6.7499530000000005,0.005090333333333333,0.09778666666666667,0.026470000000000004,-0.03143600000000002,0.037849999999999995,0.120092,1,0,0,0,0,0,,,,,,,
138.753973,-0.6261720000000001,7.1575305,7.1072815,0.0087045,0.08368600000000001,0.00984999999999999,-0.3899376666666667,0.05540766666666667,0.181917,1,0,0,0,0,0,52.33773,4.9461949999999995,7.1221630000000005,3.91,245.899994,3.790092,2.5
139.003973,-1.085444,6.596713,6.942775,-0.007991666666666666,-0.029473666666666672,-0.025146666666666675,-0.5319895,0.20992949999999996,-0.6395305,1,0,0,0,0,0,,,,,,,
139.253973,-1.085444,6.596713,6.942775,-0.015653,-0.030465999999999997,0.0781885,-0.21100999999999995,-0.176023,0.43182633333333337,1,0,0,0,0,0,,,,,,,
139.503973,-1.085444,6.596713,6.942775,-0.0194705,0.17981799999999998,0.2088335,0.012539999999999996,0.15273750000000003,0.0522005,1,0,0,0,0,0,,,,,,,
139.753973,-1.085444,6.596713,6.942775,0.03461466666666667,0.12888866666666665,-0.142327,0.599221,0.12158150000000001,0.1241625,1,0,0,0,0,0,52.337715,4.946144,7.395549000000001,3.93,244.600006,3.790092,2.5
140.003973,-1.085444,6.596713,6.942775,0.0290915,-0.132783,-0.361927,0.203829,-0.03439766666666667,-0.04940200000000001,1,0,0,0,0,0,,,,,,,
140.253973,-1.0616655,6.979863999999999,7.109824,0.036422,-0.3268035,-0.15294050000000003,-0.047295500000000046,-0.10063500000000003,0.4118815,1,0,0,0,0,0,,,,,,,
140.503973,-0.7314059999999999,7.116254666666666,6.698906333333333,-0.044541,0.054823666666666666,0.382187,-0.474849,-0.057537666666666674,0.029305666666666678,1,0,0,0,0,0,,,,,,,
140.753973,0.7286144999999999,7.1994050000000005,7.1412295,0.053144,0.13515,-0.10453099999999999,1.03951,0.04017350000000003,0.45715500000000003,1,0,0,0,0,0,,,,,,,
141.003973,-0.535095,7.096414333333333,6.678767000000001,0.004275999999999999,-0.050140333333333335,-0.16961199999999999,0.6217405,-0.14780900000000002,-0.013168999999999959,1,0,0,0,0,0,52.337699,4.946093,7.391774000000001,3.89,243.80000299999998,3.790092,2.5
141.253973,-1.680061,6.932905,6.59432,0.004581,-0.056427000000000005,-0.014355,-0.3778236666666666,0.049372,-0.08595666666666668,1,0,0,0,0,0,,,,,,,
141.503973,-1.680061,6.932905000000001,6.59432,0.0004580000000000005,-0.034284,0.102775,-0.5906975,-0.2635115,0.474854,1,0,0,0,0,0,,,,,,,
141.753973,-1.680061,6.932905,6.59432,-0.006261,-0.005446666666666665,0.15607166666666666,0.09517300000000001,0.061194666666666675,-0.143377,1,0,0,0,0,0,,,,,,,
142.003973,-1.680061,6.932905000000001,6.59432,0.019089000000000002,0.181498,-0.00022900000000000698,1.0527980000000001,0.226416,0.6652454999999999,1,0,0,0,0,0,52.337684,4.946041999999999,7.382447,3.87,244.600006,3.790092,2.5
142.253973,-1.680061,6.932905,6.59432,0.034411,-0.019394666666666668,-0.25507966666666665,0.1663385,0.0469475,0.006483000000000003,1,0,0,0,0,0,,,,,,,
142.503973,-0.8492526666666668,7.064011333333333,6.621738000000001,-0.014737,-0.1300345,-0.0820065,0.16890333333333332,-0.07201066666666667,-0.01754066666666666,1,0,0,0,0,0,,,,,,,
142.753973,-1.0360925,6.817451,7.1362945,0.016111,-0.1319435,0.09781200000000001,-0.26811100000000004,-0.282879,0.4257315,1,0,0,0,0,0,52.337669,4.945991,7.749217,3.93,245.19999700000002,3.790092,2.5
143.003973,-0.16909300000000002,7.244270333333333,6.7355963333333335,-0.010893333333333333,0.08083533333333333,0.1386623333333333,0.05384549999999999,0.011249500000000023,0.07219799999999998,1,0,0,0,0,0,,,,,,,
143.253973,0.5685944999999999,7.2197445,6.849604500000001,0.0224485,-0.10613500000000001,-0.3744495,1.117773,0.180546,0.07483333333333332,1,0,0,0,0,0,,,,,,,
143.503973,0.45732799999999996,6.834799,7.092027000000001,-0.009926,-0.028480999999999996,0.04917300000000001,-0.6866650000000001,-0.036377999999999994,-0.320133,1,0,0,0,0,0,,,,,,,
143.753973,0.45732799999999996,6.834799,7.092027000000001,-0.007890333333333334,0.011860666666666663,0.06200100000000001,-0.3858973333333333,0.030946333333333336,0.26294066666666666,1,0,0,0,0,0,52.337656,4.945939,7.729759,3.77,247.0,3.790092,2.5
144.003973,0.45732799999999996,6.834799,7.092027000000001,0.045737,-0.166532,-0.13912049999999998,0.47182199999999996,-0.1569255,0.23238550000000002,1,0,0,0,0,0,,,,,,,
144.253973,0.45732799999999996,6.834799,7.092027000000001,-0.005345000000000002,-0.048155,0.056401666666666676,-0.008230999999999988,0.210334,-0.3683205,1,0,0,0,0,0,,,,,,,
144.503973,-0.06939200000000005,6.862316333333333,7.104589333333334,-0.017333,0.10231699999999999,0.1508025,-0.45543700000000004,0.10617566666666667,0.10093866666666666,1,0,0,0,0,0,,,,,,,
144.753973,-0.5653044999999999,7.0989070000000005,6.6981090000000005,0.0335965,0.101248,-0.016492499999999997,-0.3439565,0.027050500000000005,-0.08265149999999999,1,0,0,0,0,0,52.337643,4.945887,7.799109,3.85,248.0,3.790092,2.5
145.003973,-0.5463613333333334,7.323632666666666,6.758128666666667,-0.027029666666666664,-0.055383666666666664,0.05889566666666667,-0.3531573333333333,0.23804266666666662,-0.008991666666666667,1,0,0,0,0,0,,,,,,,
145.253973,-0.38823549999999996,6.8848985,7.393523,0.039705000000000004,0.11407550000000001,0.158897,-0.368747,-0.22779750000000004,0.651814,1,0,0,0,0,0,,,,,,,
145.503973,0.31036899999999995,7.1988069999999995,6.6367926666666675,-0.011962333333333333,-0.014253333333333335,-0.16314700000000001,0.6887755,0.31306049999999996,-0.50076,1,0,0,0,0,0,,,,,,,
145.753973,0.099003,6.752845,7.431808,-0.006261000000000003,0.06803300000000001,0.021456,0.19810200000000003,-0.210225,0.405843,1,0,0,0,0,0,,,,,,,
146.003973,0.099003,6.752845,7.431808,0.003283,0.0681855,0.06146649999999999,-0.699435,0.1597695,-0.262926,1,0,0,0,0,0,52.337631,4.945833,7.884144,3.86,249.399994,3.790092,2.5
146.253973,0.099003,6.752845,7.431808,0.007889666666666665,-0.07182533333333334,-0.07650866666666666,0.04806749999999993,0.3063405,-0.325865,1,0,0,0,0,0,,,,,,,
146.503973,0.099003,6.752845,7.431808,0.009544500000000001,0.009392000000000001,0.017179999999999987,0.2051003333333333,-0.09568633333333337,0.275021,1,0,0,0,0,0,,,,,,,
146.753973,0.1302595,7.1460155,6.7631635,0.016264,-0.1408,-0.29397,1.1742035,0.345572,-0.14748500000000003,1,0,0,0,0,0,,,,,,,
147.003973,-0.7751746666666666,6.857729999999999,7.070890666666667,0.018020333333333336,0.053296333333333334,0.08058066666666668,-0.08436033333333333,-0.3281143333333334,0.4433200000000001,1,0,0,0,0,0,52.337619000000004,4.94578,7.818178,3.85,248.899994,3.790092,2.5
147.253973,-0.8729315,7.3806615,6.428916,-0.0139735,-0.062688,-0.081624,-0.2025615,0.1829345,-0.18801600000000002,1,0,0,0,0,0,,,,,,,
147.503973,-0.675474,6.918746666666667,6.9943203333333335,0.0007636666666666672,-0.197507,-0.012115333333333348,0.283512,0.1524965,0.1331875,1,0,0,0,0,0,,,,,,,
147.753973,-0.175872,7.3824559999999995,6.234499,-0.012827999999999996,-0.08154800000000001,0.1670665,-0.47808900000000004,-0.25084866666666666,0.23372566666666664,1,0,0,0,0,0,52.337607,4.945725,7.754653,3.95,249.80000299999998,3.790092,2.5
148.003973,-0.175872,7.382456,6.234499,-0.0435225,0.2610605,0.489747,-0.9571700000000001,0.19553550000000003,-0.029069999999999985,1,0,0,0,0,0,,,,,,,
148.253973,-0.175872,7.3824559999999995,6.234499,0.049428,0.06704066666666668,-0.21761433333333335,0.385329,-0.009425333333333322,0.20199666666666669,1,0,0,0,0,0,,,,,,,
148.503973,-0.175872,7.382456,6.234499,-0.0026724999999999995,0.002290500000000001,0.0910925,-1.074622,-0.220126,0.020013500000000004,1,0,0,0,0,0,,,,,,,
148.753973,-0.175872,7.3824559999999995,6.234499,-0.008246333333333336,-0.0009163333333333246,-0.01695100000000001,-0.5023595000000001,-0.20543399999999998,0.4161985,1,0,0,0,0,0,,,,,,,
149.003973,-0.11884366666666664,7.208378333333333,6.644369999999999,-0.011605999999999998,0.1122435,0.258083,0.013198333333333276,0.10406366666666671,-0.1042116666666667,1,0,0,0,0,0,52.337594,4.945671,7.522976,3.89,249.600006,3.790092,2.5
149.253973,0.754636,7.4458655,6.9279695,-0.0031304999999999987,0.1515665,-0.0030544999999999947,0.8842269999999999,0.402512,0.116202,1,0,0,0,0,0,,,,,,,
149.503973,-0.660419,7.050950333333333,6.778467666666667,0.024383,0.03736333333333334,-0.08674033333333332,0.28868800000000006,0.1490375,-0.2816675,1,0,0,0,0,0,,,,,,,
149.753973,-0.5289634999999999,7.514509500000001,6.533901500000001,-0.0203105,-0.041232000000000005,-0.099797,-0.22605333333333336,0.11152666666666668,0.1251253333333333,1,0,0,0,0,0,52.337582,4.945616,7.452675,3.92,249.0,3.790092,2.5
150.003973,-0.2091726666666667,6.964010999999999,6.758128666666667,0.029778666666666665,-0.09137266666666666,-0.048206,0.1559195,-0.383308,0.2965034999999999,1,0,0,0,0,0,,,,,,,
150.253973,0.404686,7.504789,6.190232,-0.012140500000000002,-0.0606265,-0.040239500000000004,0.7039019999999999,0.216086,0.011780333333333337,1,0,0,0,0,0,,,,,,,
150.503973,0.40468600000000005,7.504789,6.190231999999999,-0.004276,0.1004845,0.1893625,-0.6971375,-0.18514550000000002,0.293084,1,0,0,0,0,0,,,,,,,
150.753973,0.404686,7.504789,6.190232,0.008145,0.05217666666666667,-0.10964733333333336,0.21033349999999998,0.3179555,-0.093505,1,0,0,0,0,0,52.337568,4.945563,7.643909,3.99,246.5,3.790092,2.5
151.003973,-0.244367,7.202096999999999,6.665307000000001,0.0033594999999999996,-0.046119,0.050852999999999995,-0.05089566666666664,-0.08037100000000001,0.12800366666666665,1,0,0,0,0,0,,,,,,,
151.253973,0.260668,7.212116999999999,6.838986,0.025045,-0.0784175,-0.118428,0.9408654999999999,0.1165245,0.11370199999999997,1,0,0,0,0,0,,,,,,,
151.503973,-0.2625126666666667,7.193921666666667,6.555636333333332,-0.023466666666666667,-0.09575033333333334,-0.04703533333333332,0.50542,0.08826566666666665,-0.14925900000000003,1,0,0,0,0,0,,,,,,,
151.753973,-0.696162,7.0305615,7.077819999999999,0.036497999999999996,0.1678305,0.2060845,-0.1546165,-0.12009350000000002,0.39834050000000004,1,0,0,0,0,0,,,,,,,
152.003973,-0.31276166666666666,7.407182,6.481159666666667,0.005548666666666666,-0.100179,-0.10465833333333334,0.41561800000000004,0.37159600000000004,-0.1613695,1,0,0,0,0,0,52.337554,4.9455089999999995,7.749083000000001,3.96,247.30000299999998,3.790092,2.5
152.253973,-0.334995,7.274181,6.337391,-0.0053444999999999986,-0.06009199999999999,0.041003,-0.24835500000000002,-0.038008666666666656,0.07586799999999999,1,0,0,0,0,0,,,,,,,
152.503973,-0.334995,7.274181,6.337391,-0.035429499999999996,-0.009239,0.12232199999999999,0.09293100000000001,0.23010950000000002,-0.033748,1,0,0,0,0,0,,,,,,,
152.753973,-0.334995,7.274181,6.337391,0.02682633333333333,0.12970299999999998,-0.053143666666666665,0.769228,0.10734,0.0465865,1,0,0,0,0,0,52.337540999999995,4.945454,7.664376,4.02,248.100006,3.790092,2.5
153.003973,-0.334995,7.274181,6.337391,0.029015,0.05612149999999999,-0.040469,-0.10384966666666667,-0.12197133333333333,0.26626700000000003,1,0,0,0,0,0,,,,,,,
153.253973,-0.4522435,7.124779,6.464958,-0.022245,-0.18498499999999998,-0.08353366666666667,0.6465615,0.40435650000000006,-0.444533,1,0,0,0,0,0,,,,,,,
153.503973,-1.0886346666666666,7.133203666666667,6.708876333333333,0.004504999999999995,-0.035887,0.1847815,-0.6920526666666666,0.023528000000000066,-0.022866000000000015,1,0,0,0,0,0,,,,,,,
153.753973,-0.046211,7.219295499999999,6.955188000000001,-0.062383,0.024052499999999997,0.11713,0.07292850000000001,0.10827049999999999,0.21316000000000002,1,0,0,0,0,0,,,,,,,
154.003973,-0.018245333333333336,7.137291333333334,7.0052873333333325,0.04856233333333334,0.254978,0.11636633333333335,-0.41983149999999997,-0.26527449999999997,0.5156639999999999,1,0,0,0,0,0,52.337528000000006,4.945399,7.661092,4.04,250.100006,3.790092,2.5
154.253973,0.33888349999999995,7.1433235,6.728617,0.043599,-0.159966,-0.49982550000000003,1.1004283333333333,0.1936893333333333,-0.029316666666666668,1,0,0,0,0,0,,,,,,,
154.503973,-0.198006,6.960422,6.818647000000001,-0.005955499999999999,-0.1045315,0.107738,-1.179792,-0.2872985,0.14354899999999998,1,0,0,0,0,0,,,,,,,
154.753973,-0.198006,6.960422,6.818647,-0.004937666666666664,-0.011198666666666657,0.15938033333333335,-0.077027,0.07433000000000001,-0.07041000000000001,1,0,0,0,0,0,,,,,,,
155.003973,-0.198006,6.960422,6.818647000000001,-0.0018325000000000008,0.151185,0.0410795,0.509203,0.1781345,0.1838785,1,0,0,0,0,0,52.337515,4.945343,7.617157000000001,4.12,248.80000299999998,3.790092,2.5
155.253973,-0.198006,6.960422,6.818647,0.024077666666666667,-0.03033866666666667,-0.19353666666666666,0.4018935,0.250742,0.032465999999999995,1,0,0,0,0,0,,,,,,,
155.503973,-0.9433703333333332,7.145167666666667,6.847062,-0.0295495,-0.0448205,0.1517195,-0.72544,-0.10842999999999998,0.13214666666666666,1,0,0,0,0,0,,,,,,,
155.753973,0.24750800000000003,6.917351,7.074679,0.03352,-0.046806,-0.08139550000000001,0.7034795,-0.2081075,0.36217699999999997,1,0,0,0,0,0,52.337501,4.945287,7.544900999999999,4.11,248.600006,3.790092,2.5
156.003973,-0.19541366666666674,7.2011,6.685247333333333,-0.0059556666666666655,0.010588,-0.002850666666666666,-0.10102899999999998,0.10324,-0.24852549999999998,1,0,0,0,0,0,,,,,,,
156.253973,-0.6527919999999999,6.968497500000001,7.112216999999999,0.020769,0.0391705,0.020769,0.17672566666666667,-0.04270499999999999,0.34539600000000004,1,0,0,0,0,0,,,,,,,
156.503973,-1.4103693333333334,7.007879333333334,6.300401333333333,-0.006261000000000002,-0.047085999999999996,-0.08343166666666667,-0.8707984999999999,-0.021142999999999995,-0.336326,1,0,0,0,0,0,,,,,,,
156.753973,-1.589432,6.818946,6.143871,-0.0161115,-0.028939000000000006,0.2642675,-0.13707233333333338,-0.1353683333333334,0.250488,1,0,0,0,0,0,,,,,,,
157.003973,-1.5894319999999997,6.818946,6.143871,0.0074065,0.004657500000000009,0.007636,0.38191949999999997,0.37572799999999995,0.460334,1,0,0,0,0,0,52.337488,4.945232,7.658925,4.02,248.0,3.790092,2.5
157.253973,-1.589432,6.818946,6.143871,-0.022397999999999998,0.08607866666666668,0.156326,0.3153955,-0.050274,-0.2705115,1,0,0,0,0,0,,,,,,,
157.503973,-1.5894319999999997,6.818946,6.143871,0.029779000000000003,0.180429,-0.053143499999999996,-0.3932260000000001,0.031128000000000006,-0.029287666666666674,1,0,0,0,0,0,,,,,,,
157.753973,-0.20727800000000002,7.1582785,6.878916500000001,0.017027499999999997,-0.098652,-0.3555135,0.414281,0.09269300000000003,0.1167375,1,0,0,0,0,0,52.337475,4.945178,7.774354,3.93,248.5,3.790092,2.5
158.003973,-0.7728820000000001,6.786842333333333,7.205187666666667,0.02621533333333333,-0.10226600000000001,0.053093,-0.3238619999999999,-0.3223116666666666,0.4749863333333333,1,0,0,0,0,0,,,,,,,
158.253973,-0.292822,6.896414,7.0212895,-0.05535799999999999,0.069866,0.1572935,0.0134985,-0.22735700000000003,0.2983995000000001,1,0,0,0,0,0,,,,,,,
158.503973,-0.4276173333333333,7.067201666666667,6.890133,0.026572000000000002,0.07594866666666666,0.017459999999999993,0.5430965,0.45642499999999997,-0.30209549999999996,1,0,0,0,0,0,,,,,,,
158.753973,-0.990928,7.530512,6.500103,0.002596000000000001,0.0338255,-0.13996,-0.1437203333333333,-0.04565366666666663,0.21869166666666665,1,0,0,0,0,0,,,,,,,
159.003973,-0.9909279999999999,7.530511999999999,6.500103,-0.0087805,-0.113083,-0.08124250000000001,-0.1932925,0.09373999999999999,-0.026782,1,0,0,0,0,0,52.337463,4.945124,7.682509,3.85,248.600006,3.790092,2.5
159.253973,-0.990928,7.530512,6.500103,0.009416999999999997,-0.04698466666666667,0.006210000000000003,-0.008222000000000026,-0.06601333333333333,0.067799,1,0,0,0,0,0,,,,,,,
159.503973,-0.9909279999999999,7.530511999999999,6.500103,0.0180965,-0.0309245,0.0142025,0.3972215,0.096275,0.048034499999999994,1,0,0,0,0,0,,,,,,,
159.753973,-0.990928,7.530512,6.500103,-0.010232,0.015169333333333335,-0.1257326666666667,0.41679399999999994,-0.08139000000000002,0.25472700000000004,1,0,0,0,0,0,52.33745,4.945072,7.918483999999999,3.82,247.899994,3.790092,2.5
160.003973,-1.0729816666666665,7.045766,6.759923333333333,0.0155765,-0.053525500000000004,0.15103200000000003,-0.3978206666666666,-0.06076,0.04654533333333336,1,0,0,0,0,0,,,,,,,
160.253973,-1.0966605,7.18774,7.1153569999999995,-0.0274115,0.08147149999999999,0.27312499999999995,-0.9451844999999999,0.090497,0.3594035,1,0,0,0,0,0,,,,,,,
160.503973,0.7357929999999998,7.112365999999999,6.967102,0.04622066666666667,0.07676333333333334,-0.13891666666666666,0.3393005000000001,-0.20382499999999998,0.2388655,1,0,0,0,0,0,,,,,,,
160.753973,0.05039899999999997,7.472636,6.45434,0.0258845,-0.33169000000000004,-0.508454,1.5863519999999998,0.33702666666666675,-0.02380833333333333,1,0,0,0,0,0,52.337437,4.945019,7.957986,3.83,248.30000299999998,3.790092,2.5
161.003973,-1.244567,6.504589,7.116553999999998,-0.0142785,0.02283049999999999,0.4129325,-1.0773185,-0.7790635,0.521393,1,0,0,0,0,0,,,,,,,
161.253973,-1.244567,6.504589,7.116553999999999,-0.004275999999999999,0.03715966666666666,0.02117633333333335,0.31895066666666666,0.339043,-0.196453,1,0,0,0,0,0,,,,,,,
161.503973,-1.244567,6.504589,7.116553999999998,-0.03199350000000001,-0.008628499999999997,0.1998235,-1.560141,-0.098533,0.12263199999999999,1,0,0,0,0,0,,,,,,,
161.753973,-1.244567,6.504589,7.116553999999999,0.010842666666666667,0.11407566666666664,0.06821133333333333,0.08847649999999985,-0.2527455,0.327275,1,0,0,0,0,0,,,,,,,
