,Acceleration x (m/s^2),Acceleration y (m/s^2),Acceleration z (m/s^2),Gyroscope x (rad/s),Gyroscope y (rad/s),Gyroscope z (rad/s),Linear Acceleration x (m/s^2),Linear Acceleration y (m/s^2),Linear Acceleration z (m/s^2),labelnormal,labelturnright,labelturnleft,labelbrake,labelstop,labelaccelerate,Latitude (°),Longitude (°),Height (m),Velocity (m/s),Direction (°),Horizontal Accuracy (m),Vertical Accuracy (m)
0.0,-0.7329516666666666,7.1072315,6.8472116666666665,-0.0011070000000000001,0.03875075,0.05554875,0.03504575,0.13427699999999998,-0.007754500000000002,1,0,0,0,0,0,,,,,,,
0.5,0.0908676,7.5773512,6.682914199999999,0.004550800000000001,0.1065318,0.1770844,0.0511908,0.32149920000000004,-0.1932266,1,0,0,0,0,0,52.339857,4.95291625,,,,,0.625
1.0,-1.0472189999999997,7.673902,5.7565930000000005,0.0235482,-0.168044,-0.2499282,0.5439547999999998,0.06803600000000003,0.1258154,1,0,0,0,0,0,,,,,,,
1.5,0.27116640000000003,7.6661253999999985,6.920402200000002,-0.0411714,0.26526059999999996,0.4904187999999999,-0.1158565000000002,-0.19189925,0.35959325,1,0,0,0,0,0,,,,,,,
2.0,0.8617151999999999,6.7491357999999995,8.1815394,0.0557092,-0.1629438,-0.37325840000000005,0.06694500000000013,-0.2465406,0.481461,1,0,0,0,0,0,52.339763,4.952954,4.2984860000000005,1.67,272.299988,3.790092,2.5
2.5,-0.4588836,7.1129642,6.994758999999999,-0.041919250000000005,0.018974249999999998,0.041805,0.04663639999999995,-0.32215760000000004,0.3593668,1,0,0,0,0,0,52.339762,4.952932,4.418956,1.52,281.700012,3.790092,2.5
3.0,-0.10043879999999997,6.531388999999999,7.262755200000001,0.053143600000000006,-0.08121200000000002,-0.2789434,0.7830916,-0.3732974000000001,0.6645121999999999,1,0,0,0,0,0,,,,,,,
3.5,-0.12735800000000005,7.135875799999999,7.1309702,-0.009162599999999998,-0.10170599999999999,0.1208562,-0.2640888,-0.14612699999999995,0.1867218,1,0,0,0,0,0,52.339763,4.952897,4.435233,3.08,271.100006,3.790092,2.5
4.0,-1.5411574,7.8363147999999985,8.029535200000002,-0.0333218,0.1285222,0.366539,-0.49998125,-0.4615845,0.12095599999999995,1,0,0,0,0,0,,,,,,,
4.5,0.6088538,8.022416400000001,6.174858400000001,0.024395750000000004,0.0720035,-0.1313705,-0.09357540000000003,-0.05279340000000003,0.5951810000000001,1,0,0,0,0,0,52.339764,4.95285,4.35812,3.2,271.600006,3.790092,2.5
5.0,-0.29126619999999986,6.6610797999999996,6.580621199999999,0.02767140000000001,-0.0755618,-0.12003159999999995,0.20446139999999996,-0.0753404,0.1125802,1,0,0,0,0,0,,,,,,,
5.5,-0.642174,6.6516286,6.828756599999999,-0.0082462,0.048531799999999986,0.097308,-0.09527639999999998,-0.16643319999999998,0.32385440000000004,1,0,0,0,0,0,,,,,,,
6.0,-0.7634898,6.9683182000000015,7.998667399999999,0.021257599999999998,0.0616652,-0.0390332,0.406698,-0.08563124999999999,0.42197775,1,0,0,0,0,0,52.339765,4.952799,4.232971,3.53,272.399994,3.790092,2.5
6.5,-0.005264199999999964,6.861000200000001,7.0730043999999985,0.00874275,-0.0670405,-0.09903375,0.1434164,-0.26393540000000004,0.30041339999999994,1,0,0,0,0,0,52.339766,4.952746,3.950044,3.74,270.5,3.790092,2.5
7.0,-1.197847,6.2904318,8.583234000000001,-0.015149199999999996,-0.0545794,0.10940279999999998,-0.17647939999999998,-0.16030260000000002,0.28934540000000003,1,0,0,0,0,0,,,,,,,
7.5,-1.46022,7.970312599999999,6.954141,0.010995,0.091963,0.07522580000000001,-0.15111080000000002,-0.06727119999999995,0.2918364,1,0,0,0,0,0,52.339765,4.9526910000000015,3.943663,3.85,269.899994,3.790092,2.5
8.0,0.7269994000000002,6.460860200000001,6.6014388,0.016492800000000002,0.0233038,-0.061267999999999996,0.2982454,-0.1987888,0.33264180000000004,1,0,0,0,0,0,,,,,,,
8.5,-1.5798014,7.7330641999999985,5.003033,0.008887799999999998,-0.004062399999999994,0.006719400000000009,-0.06575299999999998,-0.14911999999999995,0.24302025,1,0,0,0,0,0,52.339764,4.952635,3.661464,3.81,269.0,3.790092,2.5
9.0,0.7561321999999999,6.4314285999999985,7.077431,-0.006605000000000002,-0.0036650000000000007,0.0696365,-0.12761359999999994,-0.1964286,0.26099759999999994,1,0,0,0,0,0,,,,,,,
9.5,-0.8769695999999998,6.954141,6.870571400000001,0.0144162,0.0207078,-0.0205244,0.26228099999999993,-0.02521779999999999,0.1862592,1,0,0,0,0,0,,,,,,,
10.0,0.5222933999999999,7.224768800000001,6.2325252,-0.0055282,0.011239599999999995,0.035551599999999996,-0.06321119999999998,-0.0007877999999999941,0.18587820000000002,1,0,0,0,0,0,52.339761,4.95258,3.619253,3.89,267.0,3.790092,2.5
10.5,0.051685200000000014,7.896494000000001,6.1806608,0.00045820000000000165,0.018630800000000003,0.152498,-0.2997785,-0.09579125000000002,0.19627025,1,0,0,0,0,0,,,,,,,
11.0,0.12334980000000008,6.117191199999999,7.893862200000001,0.0195855,0.16653225000000002,0.155079,-0.33257079999999994,0.08694139999999999,0.114559,1,0,0,0,0,0,52.339756,4.952526,3.808668,3.72,265.0,3.790092,2.5
11.5,-1.8144173999999995,7.6791062000000005,6.227919,0.0268162,0.089367,0.0232426,-0.17098080000000002,-0.02023060000000001,0.1600368,1,0,0,0,0,0,52.339749,4.952473,3.937595,3.8,259.899994,3.790092,2.5
12.0,1.2320642000000002,6.3935624,7.827640799999999,0.005070000000000001,0.08347260000000001,-0.1076008,0.5921930000000001,-0.07717660000000001,0.267787,1,0,0,0,0,0,,,,,,,
12.5,-0.9942776,7.023711799999999,6.6640708,0.0087962,-0.064261,-0.0609626,0.33497525,0.03526649999999998,0.14352700000000002,1,0,0,0,0,0,52.33974,4.95242,3.917715,3.84,255.899994,3.790092,2.5
13.0,-0.5790031999999999,7.184091199999999,7.8808213999999985,-0.0046728,-0.066063,0.0040316000000000015,0.15928780000000006,-0.012799199999999988,0.07498160000000001,1,0,0,0,0,0,,,,,,,
13.5,-0.10420740000000003,7.0931038,7.034898599999999,0.002634500000000001,0.07276725,0.09788825,-0.16116759999999994,-0.02825299999999998,0.16584679999999996,1,0,0,0,0,0,,,,,,,
14.0,-1.0389035999999998,7.4302526,6.469056,-0.0102318,-0.018081,0.013560799999999998,-0.1971276,-0.0198566,0.05002460000000001,1,0,0,0,0,0,52.33973,4.952367,4.158759,3.79,254.600006,3.790092,2.5
14.5,-1.0543376,7.973662599999999,6.134599,0.020616,0.05659500000000001,-0.017989400000000006,0.2625128,0.12394360000000001,0.11515660000000005,1,0,0,0,0,0,,,,,,,
15.0,-0.5248653999999999,7.1918678,6.461698,-0.004214800000000001,-0.0258082,0.03842240000000001,-0.3562995,0.0366385,-0.08195949999999999,1,0,0,0,0,0,52.33972,4.952314,4.227379,3.94,255.199997,3.790092,2.5
15.5,-0.3710072000000001,7.814360400000001,6.5154762,0.01691275,0.0243575,-0.0484095,0.2051696,0.024183,0.188713,1,0,0,0,0,0,52.33971,4.952259,4.471596,4.07,254.800003,3.790092,2.5
16.0,-0.5562113999999999,7.1324062,7.346025599999999,-6.120000000000015e-05,0.030267599999999988,0.04132380000000001,-0.2827554000000001,0.1515598,0.0573074,1,0,0,0,0,0,,,,,,,
16.5,0.5091928000000001,6.3728044000000015,7.738986600000001,0.014874200000000002,-0.002840400000000001,0.06774279999999999,0.2486244,0.041618800000000025,0.15817699999999998,1,0,0,0,0,0,,,,,,,
17.0,-0.413779,7.8117886000000025,6.2259448,0.005772600000000001,0.1129762,0.124002,-0.7042884999999999,-0.12042100000000006,0.16967625000000006,1,0,0,0,0,0,52.339699,4.952204,4.358206,4.11,252.300003,3.790092,2.5
17.5,-0.7646265999999999,6.932007199999998,8.303214200000001,0.0200435,0.0247395,0.036689,0.11659939999999995,0.018064400000000008,0.1421356,1,0,0,0,0,0,,,,,,,
18.0,0.7715658000000001,6.715277400000001,8.323972000000001,0.0186614,0.1352722,0.034665800000000004,-0.06601519999999997,-0.05643680000000002,0.223786,1,0,0,0,0,0,52.339686,4.95215,4.433536,4.07,249.399994,3.790092,2.5
18.5,0.5985646000000001,6.676154800000001,7.748797200000001,-0.008521199999999998,-0.058488600000000016,0.0006107999999999808,0.01924260000000001,-0.06596939999999997,0.16920120000000002,1,0,0,0,0,0,52.339671,4.952097,4.650404,3.98,246.0,3.790092,2.5
19.0,1.4946166,7.573882000000001,7.528538,0.011483999999999998,0.0675292,0.0006413999999999975,0.74175,0.05279425000000002,0.25182775,1,0,0,0,0,0,,,,,,,
19.5,-1.0288537999999998,7.453762400000001,7.328378199999999,0.002321199999999999,-0.0465464,0.004062400000000005,-0.14472599999999994,0.07871560000000001,0.009243199999999984,1,0,0,0,0,0,52.339655,4.952047,4.690086,3.89,242.699997,3.790092,2.5
20.0,0.6610172000000001,7.3597842,7.582316399999999,-0.01843975,0.07417975,0.14919949999999998,0.2238134,0.057596200000000014,-0.006871799999999989,1,0,0,0,0,0,,,,,,,
20.5,-0.2696114000000001,6.2700924,7.738807200000001,0.007910399999999995,0.12455180000000003,0.028923599999999994,-0.19818139999999998,0.06679140000000001,0.07642180000000001,1,0,0,0,0,0,52.339638,4.952,4.956208,3.78,240.199997,3.790092,2.5
21.0,-1.3393226,7.292306599999999,5.9473608,0.011728,-0.06313099999999999,-0.1234828,0.4917132000000001,0.06468960000000001,0.07424019999999999,1,0,0,0,0,0,,,,,,,
21.5,0.14560339999999994,7.636035799999999,6.004908,-0.0048562,0.05809159999999999,0.1098302,0.05058900000000005,-0.10255,0.213985,1,0,0,0,0,0,,,,,,,
22.0,-0.5364111999999999,7.092745000000002,7.163692200000001,0.007673999999999999,-0.0419575,-0.03168775,0.008411999999999998,0.12667680000000006,0.033002600000000014,1,0,0,0,0,0,52.339619,4.951954,4.957315,3.9,238.100006,3.790092,2.5
22.5,0.9633502,6.8605812,7.593862,-0.0047646000000000025,0.0265414,0.06401659999999999,0.327054,0.08228560000000001,0.08119839999999996,1,0,0,0,0,0,,,,,,,
23.0,-0.8840281999999998,7.135038000000001,7.0621165999999995,-0.002596000000000001,0.0987128,0.013224799999999986,-0.2132598,0.1928234,-0.07016880000000003,1,0,0,0,0,0,52.3396,4.951908,5.0484480000000005,3.85,236.600006,3.790092,2.5
23.5,-0.7829909999999999,7.783672599999999,5.298905800000001,0.013713399999999999,-0.0562896,-0.024434,0.31591875,0.010513999999999996,0.16560975000000006,1,0,0,0,0,0,52.33958,4.951865,4.9945010000000005,3.78,234.399994,3.790092,2.5
24.0,0.2164906,6.158108800000001,8.323074799999999,0.006719249999999998,0.11804625,0.05108175000000001,0.05843299999999998,-0.0965268,0.0906038,1,0,0,0,0,0,,,,,,,
24.5,-1.52698,7.637590800000001,5.1270414,0.0021074,-0.019028,0.0012828000000000186,0.22894060000000005,0.06636680000000003,0.1345848,1,0,0,0,0,0,,,,,,,
25.0,-0.36753779999999997,6.2902522,8.9704528,-0.0007332000000000012,0.0643832,0.038697000000000016,0.2426196,-0.08362239999999999,0.06380920000000001,1,0,0,0,0,0,52.339559,4.951823,4.967897,3.76,232.600006,3.790092,2.5
25.5,-1.4356338000000002,8.1093956,5.134758000000001,-0.0009775999999999993,-0.07186619999999999,-0.0637112,0.2257098,0.2525566,-0.016895400000000015,1,0,0,0,0,0,,,,,,,
26.0,0.4759324,7.025088000000001,7.597810000000001,0.006444199999999999,-0.0237008,-0.0522274,0.7954392499999998,0.02704875,0.18700800000000006,1,0,0,0,0,0,52.339538,4.951782,5.0038540000000005,3.8,230.899994,3.790092,2.5
26.5,-2.1025134000000003,7.610671600000001,6.4838912,-0.0054210000000000005,0.1112885,0.18222349999999998,-0.17480500000000002,-0.05927819999999999,0.15149620000000003,1,0,0,0,0,0,52.339516,4.9517419999999985,5.157181,3.79,230.899994,3.790092,2.5
27.0,0.37639120000000004,7.9821572,5.3840303999999986,0.004825600000000001,-0.02196000000000001,-0.0038483999999999853,-0.036462,0.03918479999999998,-0.008266199999999984,1,0,0,0,0,0,,,,,,,
27.5,-1.1804393999999998,7.223213600000001,6.877510599999999,0.011392200000000002,-0.06142080000000001,-0.1034472,0.5193883999999999,0.07252400000000002,0.21235980000000004,1,0,0,0,0,0,,,,,,,
28.0,0.19208380000000008,7.3573314,6.955995400000001,-0.0025959999999999985,0.0790742,0.1925084,-0.6055229999999999,0.2011185,-0.009847000000000009,1,0,0,0,0,0,52.339494,4.9517,5.0853480000000015,3.94,230.600006,3.790092,2.5
28.5,0.14434699999999998,7.081678199999999,7.9697146,0.008399500000000004,0.03115325,-0.07731025,0.3913965999999999,-0.14934260000000002,0.2091826,1,0,0,0,0,0,52.339471,4.951658,5.289758999999999,3.93,229.300003,3.790092,2.5
29.0,0.7504489999999999,7.451968000000001,6.1750378,0.008735,-0.030328599999999987,-0.13640199999999994,0.0918012,-0.0709932,0.2144474,1,0,0,0,0,0,,,,,,,
29.5,0.6506681999999999,6.1785674,9.5282198,-0.015546000000000003,0.0416292,0.200144,-0.11343760000000007,-0.02509679999999997,0.15393900000000002,1,0,0,0,0,0,,,,,,,
30.0,0.18843500000000007,7.5572517999999995,5.8362739999999995,0.014385599999999997,0.0989878,-0.10601239999999998,0.1848425,-0.24757975,0.373814,1,0,0,0,0,0,52.339448,4.951618,5.235687,3.84,228.0,3.790092,2.5
30.5,-0.4152744000000001,7.1096144,6.8173910000000015,-0.012331249999999998,-0.08971825,0.12892699999999999,-0.3712858,-0.006233999999999996,-0.05171760000000001,1,0,0,0,0,0,52.339425,4.95158,5.214087,3.78,226.800003,3.790092,2.5
31.0,0.6649654,7.1992856000000005,8.029415400000001,0.0146908,0.0646584,-0.09981260000000002,1.1228058,-0.153436,0.36014359999999995,1,0,0,0,0,0,,,,,,,
31.5,-1.0673781999999998,7.8400234,6.741598400000001,0.0211354,-0.0942538,-0.10027060000000003,-0.041170800000000014,0.28910040000000004,-0.1182786,1,0,0,0,0,0,,,,,,,
32.0,0.12370859999999988,7.107640599999999,6.594559400000001,-0.0046424,-0.0158516,0.0784632,0.42564179999999996,0.2127506,-0.07149160000000003,1,0,0,0,0,0,52.339402,4.951543,5.184553,3.69,227.0,3.790092,2.5
32.5,1.39023,,,0.0106898,0.040927000000000005,-0.07366799999999997,0.004093249999999993,-0.32735774999999995,0.28501875000000004,1,0,0,0,0,0,52.33938,4.951505,5.410941,3.72,227.800003,3.790092,2.5
33.0,-0.373699,7.928498199999997,5.1843492000000015,-0.016301750000000004,-0.11472475,-0.02134175,0.2325512,0.21815779999999999,-0.097228,1,0,0,0,0,0,,,,,,,
33.5,-0.26446679999999995,7.0989666,6.8145194,0.0048562,0.026083199999999997,0.057236199999999994,0.29119899999999993,-0.09610980000000001,0.18497040000000006,1,0,0,0,0,0,52.339358,4.951466,5.536071,3.69,229.600006,3.790092,2.5
34.0,0.07429720000000004,7.4336622,7.121279799999999,0.0072080000000000035,-0.09339860000000001,-0.08402219999999998,-0.29216619999999993,0.15435139999999994,-0.0248372,1,0,0,0,0,0,,,,,,,
34.5,0.4301100000000001,7.458727,7.0815589999999995,-0.0139578,-0.0458746,-0.024373000000000013,0.44347575,0.23335175,-0.17270049999999995,1,0,0,0,0,0,52.339337,4.951427,5.572456,3.61,230.800003,3.790092,2.5
35.0,0.09750760000000004,7.5806416000000025,6.799923599999999,0.011644499999999999,0.21959949999999998,0.28194400000000003,-0.2958570000000001,-0.004582399999999964,0.20318660000000005,1,0,0,0,0,0,,,,,,,
35.5,-0.4259226,7.053084000000001,6.734180599999999,0.0149658,-0.1014618,-0.1824294,0.18992199999999992,-0.06406860000000003,0.02617200000000005,1,0,0,0,0,0,,,,,,,
36.0,0.7321435999999999,7.2198639999999985,6.7154562,-0.011759,0.024891999999999997,-0.04361480000000001,0.6835624000000001,0.14520300000000005,0.06038900000000001,1,0,0,0,0,0,52.339317,4.951387,5.615678,3.64,231.600006,3.790092,2.5
36.5,1.411765,7.203891999999999,6.639483999999999,-0.004245400000000001,-0.0674682,-0.1023168,-0.12341775,0.12556575000000006,-0.016302750000000005,1,0,0,0,0,0,,,,,,,
37.0,1.411765,7.203891999999999,6.639483999999999,0.0120642,-0.06481100000000001,-0.02556400000000001,0.430561,0.14013979999999998,-0.04388199999999999,1,0,0,0,0,0,52.339297,4.951345,5.680628,3.66,232.699997,3.790092,2.5
37.5,-0.8697312,6.9400232000000015,6.9023364,-0.006413750000000001,0.06135225,0.18210875,-0.2744228,-0.13718460000000002,0.151508,1,0,0,0,0,0,52.339277,4.951302,5.685336,3.72,234.600006,3.790092,2.5
38.0,-0.417787,7.170212600000001,6.7286174,0.0095292,-0.1434268,-0.1382958,0.147578,0.144353,-0.07934599999999999,1,0,0,0,0,0,,,,,,,
38.5,-0.077468,7.021139999999999,6.559624000000001,-0.0036650000000000016,0.1256514,0.12577339999999998,0.052656,0.06362659999999999,0.1694912,1,0,0,0,0,0,52.339258,4.951257,5.868389,3.7,236.600006,3.790092,2.5
39.0,-0.077468,7.021139999999999,6.559624000000001,-0.013011000000000002,-0.065544,-0.03490979999999999,0.15924875,0.18703325,-0.27026074999999994,1,0,0,0,0,0,,,,,,,
39.5,0.16277160000000004,7.147121999999999,6.7491954,0.006375749999999998,0.02932075,0.06467375000000003,-0.1496044,-0.07747019999999996,0.29985320000000004,1,0,0,0,0,0,52.33924,4.951212,5.986013,3.63,237.199997,3.790092,2.5
40.0,-0.5432901999999998,7.003791999999999,6.899464999999998,-0.0017104000000000002,0.08918380000000001,0.07211060000000001,-0.30666380000000004,-0.05026180000000001,0.100946,1,0,0,0,0,0,,,,,,,
40.5,-0.1253835999999999,7.275795599999999,6.8083578000000005,0.0090708,-0.052044200000000006,-0.13594379999999998,0.19321,0.011500400000000013,0.0877016,1,0,0,0,0,0,52.339222,4.951168,5.88623,3.62,236.0,3.790092,2.5
41.0,0.440878,7.310969999999998,7.1479589999999975,-0.0136832,0.11902340000000006,0.1474584,-0.10613024999999998,0.022957249999999985,0.16944125,1,0,0,0,0,0,,,,,,,
41.5,0.3526426,7.2555761999999975,7.211847399999999,0.04008674999999999,-0.033138249999999994,-0.3047365,0.7585593999999999,0.0887666,0.025085599999999972,1,0,0,0,0,0,52.339202,4.951124,5.757332,3.67,234.5,3.790092,2.5
42.0,-0.7917251999999999,7.0706712,6.8699732000000004,0.026602400000000002,-0.19928900000000002,-0.04196520000000002,0.30797220000000003,0.02308980000000001,0.15324839999999998,1,0,0,0,0,0,,,,,,,
42.5,-0.40277179999999996,7.0654072,6.9099334,-0.008063200000000001,0.0685064,0.08475479999999998,0.12606699999999998,-0.0240934,0.16564379999999998,1,0,0,0,0,0,52.339183,4.951078,5.786454,3.8,236.100006,3.790092,2.5
43.0,0.185145,7.486842999999999,6.678068999999999,-0.0053143999999999995,-0.048715,0.09843819999999999,-0.648138,-0.23995475,0.20032375,1,0,0,0,0,0,,,,,,,
43.5,0.185145,7.486842999999999,6.678068999999999,0.005131000000000003,-0.0318862,-0.08649599999999999,0.5914991999999999,0.077956,0.1391406,1,0,0,0,0,0,52.339165,4.951031,5.819298000000002,3.81,238.199997,3.790092,2.5
44.0,-0.8197213999999999,6.9943399999999984,6.9080792,0.001718,0.10869275,0.17042649999999998,-0.5667268,-0.057051,0.1074368,1,0,0,0,0,0,,,,,,,
44.5,-0.07004999999999997,7.189295200000001,6.823432600000001,0.016890000000000002,-0.0241896,-0.1828264,0.472903,0.16972920000000002,0.0110266,1,0,0,0,0,0,52.339147,4.950984,5.805269,3.8,239.100006,3.790092,2.5
45.0,0.000299,7.555936,6.669395,-0.0013744000000000009,0.038086199999999994,0.07617280000000001,0.09316499999999997,0.04008739999999997,0.10277840000000002,1,0,0,0,0,0,,,,,,,
45.5,0.000299,7.555936,6.669395,-0.0052838,-0.06065719999999999,-0.051830199999999986,0.39468675,0.10519200000000004,0.01805475000000004,1,0,0,0,0,0,52.339129,4.950936,5.728922,3.93,238.600006,3.790092,2.5
46.0,-0.31992059999999994,7.236793,6.814340199999998,0.010728249999999998,0.03878875,0.01122425,0.06195540000000002,0.0935396,0.031916199999999985,1,0,0,0,0,0,,,,,,,
46.5,-0.7275378,7.0762345999999985,6.855436999999999,-0.0032682,-0.046332599999999995,-0.056075800000000016,-0.2544362000000001,0.03283740000000002,0.059448199999999986,1,0,0,0,0,0,52.339111,4.950886,5.970079,3.96,238.800003,3.790092,2.5
47.0,-0.1180858,7.1496944000000004,6.896354,0.002382400000000001,-0.016645600000000003,-0.0227846,0.1205928,0.04964159999999998,0.1089134,1,0,0,0,0,0,,,,,,,
47.5,-0.281456,7.254738999999999,6.935596000000001,0.0102622,-0.0609628,-0.0966666,0.10827175000000004,0.1654575,-0.09283025000000003,1,0,0,0,0,0,52.339094,4.950835,5.931634,3.99,241.0,3.790092,2.5
48.0,-0.4825728,7.1308506,6.938168400000001,0.00740675,-0.027564499999999995,0.1609965,-0.3352136,-0.09700880000000003,0.2354278,1,0,0,0,0,0,,,,,,,
48.5,-0.29605180000000003,7.161478999999999,6.893602199999999,0.0100788,0.04111,-0.016340399999999998,0.4837123999999999,0.3247662,-0.08381799999999999,1,0,0,0,0,0,52.339077,4.950784,6.022279,3.95,242.399994,3.790092,2.5
49.0,-0.515055,6.9067630000000015,6.866084799999999,-0.021593599999999998,-0.014843600000000004,0.019425000000000005,0.2869638,0.14575280000000002,-0.06197919999999999,1,0,0,0,0,0,,,,,,,
49.5,-0.127418,6.910472,6.778268,0.0230902,0.041782,0.004825799999999996,0.4342532,0.201071,-0.06543940000000001,1,0,0,0,0,0,,,,,,,
50.0,-0.127418,6.910472,6.778268,-0.007696599999999999,-0.026358000000000003,-0.066735,0.203046,0.19039575,-0.09254025,1,0,0,0,0,0,52.339062,4.950732,5.849925,3.93,243.300003,3.790092,2.5
50.5,-0.1601994,7.184629600000001,6.7516482,0.016951,-0.02882425,-0.035390999999999985,0.3497566,0.17916720000000005,0.0588906,1,0,0,0,0,0,52.339046,4.95068,5.874653,3.96,242.899994,3.790092,2.5
51.0,-0.7493122000000001,6.9996042,6.9436122000000005,-0.0016190000000000002,0.0375976,0.056930800000000024,-0.053420399999999986,0.028556399999999992,0.0908796,1,0,0,0,0,0,,,,,,,
51.5,0.10085719999999998,7.246902599999999,6.8246894000000005,0.026449599999999997,-0.1196038,-0.20597760000000004,0.8045266,0.07110540000000001,0.184854,1,0,0,0,0,0,,,,,,,
52.0,0.151944,7.214060999999999,6.837192,-0.010476000000000001,0.013591400000000005,0.1845674,0.03424775,-0.094973,0.19479625,1,0,0,0,0,0,52.33903,4.950628,5.860501,3.92,243.399994,3.790092,2.5
52.5,-0.2231308,7.018447800000001,6.96784,0.017294749999999998,-0.02244875,-0.05803050000000001,0.19632120000000003,-0.1539036,0.2983814,1,0,0,0,0,0,52.339015,4.950576,5.831764,3.88,245.100006,3.790092,2.5
53.0,-0.4868798,7.0972916,6.864888400000001,-0.0196692,-0.019669400000000004,0.0422094,0.10664720000000004,-0.019668200000000004,0.1552158,1,0,0,0,0,0,,,,,,,
53.5,-0.330329,7.253542800000001,6.502435799999999,0.0049172,0.021654800000000002,0.025228,0.05541780000000003,0.0869018,0.021114600000000004,1,0,0,0,0,0,,,,,,,
54.0,-0.707677,7.153941999999999,6.296414,0.0110564,0.09187139999999999,0.057114,0.262203,0.128022,0.14908074999999998,1,0,0,0,0,0,52.339001,4.950524,5.895618,3.86,246.300003,3.790092,2.5
54.5,-0.707677,7.153941999999999,6.296414,0.0033595999999999995,-0.025808200000000003,-0.11150999999999998,0.2320274,-0.13973239999999998,0.17600760000000001,1,0,0,0,0,0,,,,,,,
55.0,-0.7229315999999999,7.144430000000001,6.6676004,-0.02046325,-0.023937500000000004,0.142213,-0.19202200000000005,0.08064800000000001,-0.10277760000000001,1,0,0,0,0,0,52.338988,4.950472,5.970337000000002,3.88,246.100006,3.790092,2.5
55.5,-0.2282154000000001,7.0211998000000015,7.0999234,0.025014400000000003,0.16303520000000002,0.026388599999999998,0.17480420000000002,-0.013663399999999992,0.2916886,1,0,0,0,0,0,,,,,,,
56.0,0.775574,7.2837520000000024,6.4920269999999975,0.0426982,-0.1637988,-0.29595540000000004,0.7486378,0.02064519999999998,0.20346679999999998,1,0,0,0,0,0,52.338973,4.950421,6.019359,3.9,243.699997,3.790092,2.5
56.5,0.775574,7.2837520000000024,6.4920269999999975,-0.006536200000000003,0.008613000000000013,0.1996554,-0.11868174999999995,-0.06889225000000003,0.045931250000000014,1,0,0,0,0,0,52.338957,4.95037,6.14858,3.91,243.5,3.790092,2.5
57.0,-0.13040880000000002,7.1931838,6.617291399999999,-0.0017945000000000007,-0.06803300000000001,-0.15668225000000002,0.16053900000000002,0.1317088,0.045456999999999984,1,0,0,0,0,0,,,,,,,
57.5,-0.4613362,7.067142200000001,6.925367,0.005131,-0.0397968,0.00659720000000001,-0.02080020000000001,-0.048715199999999986,0.2016562,1,0,0,0,0,0,,,,,,,
58.0,-0.1877172,6.751707999999999,7.405845999999999,-0.0106288,0.021807,0.07513420000000001,-0.2460322,-0.047860200000000006,0.1299622,1,0,0,0,0,0,52.338942,4.950319,6.080962,3.89,244.800003,3.790092,2.5
58.5,-0.217448,6.605386999999999,7.7075809999999985,-0.004398,-0.0020464000000000038,0.1962652,-0.6868675,-0.258832,0.20102425,1,0,0,0,0,0,52.338928,4.950266,6.200419,3.86,246.699997,3.790092,2.5
59.0,-0.16683979999999998,6.5932434,7.569814199999999,0.026151999999999998,0.21356750000000002,-0.05730525,0.2086768,0.04420920000000004,0.2659636,1,0,0,0,0,0,,,,,,,
59.5,-0.9664608,6.9521668000000005,6.8276202,-0.0152708,-0.08634340000000001,0.012186400000000007,-0.4191552,-0.208416,0.16442279999999998,1,0,0,0,0,0,52.338913,4.950214,6.2320449999999985,3.92,245.399994,3.790092,2.5
60.0,0.39421740000000005,7.2211798,6.8280987999999985,0.0197916,0.0994156,-0.05244119999999999,0.691571,0.1018828,0.1053668,1,0,0,0,0,0,,,,,,,
60.5,0.4510470000000001,6.584450000000001,7.115058,0.022570600000000003,-0.052716200000000005,-0.12949960000000002,0.06516479999999998,-0.07185380000000001,0.29360959999999997,1,0,0,0,0,0,52.338897,4.9501620000000015,6.098143,3.88,243.100006,3.790092,2.5
61.0,0.4510470000000001,6.584450000000001,7.115058,0.0120948,-0.0860074,-0.1144726,0.65107275,-0.05016824999999997,0.22080925,1,0,0,0,0,0,,,,,,,
61.5,-0.6371488000000001,6.8679992,7.012107,0.005612250000000001,-0.064788,0.11583175,0.10854059999999996,-0.08203659999999999,0.188623,1,0,0,0,0,0,,,,,,,
62.0,-0.7088139999999999,7.113562599999999,6.8338418,-0.01014,0.008124400000000006,0.1107464,-0.32616680000000003,0.0980434,0.0023991999999999907,1,0,0,0,0,0,52.338881,4.950111,6.029304,3.89,243.0,3.790092,2.5
62.5,-0.145065,7.052247,6.539883999999999,-0.0099566,0.0808762,0.037567,0.21766800000000008,0.037673000000000005,0.015419800000000022,1,0,0,0,0,0,,,,,,,
63.0,-0.145065,7.052247,6.539883999999999,0.006169400000000003,-0.056106399999999994,-0.03717,0.17880450000000006,0.12552200000000002,-0.028552249999999987,1,0,0,0,0,0,52.338866,4.950059,6.124346,3.87,244.699997,3.790092,2.5
63.5,0.2225324,7.180382399999999,6.6115488,0.016111,-0.044973749999999986,-0.1077,0.4062446000000001,0.06916759999999998,0.023093599999999992,1,0,0,0,0,0,52.338852,4.950007,6.098966000000001,3.87,245.899994,3.790092,2.5
64.0,-0.589113,7.1851677999999986,6.889773799999999,0.002779400000000002,0.12455180000000003,0.08191460000000003,-0.1042666,0.16493259999999998,0.07093619999999999,1,0,0,0,0,0,,,,,,,
64.5,-0.7402198,6.9753174,6.9107108,-0.0062612,-0.054304,-0.055953600000000006,0.2057846,-0.09626079999999997,0.2012694,1,0,0,0,0,0,52.338838,4.949955,5.977517,3.9,245.0,3.790092,2.5
65.0,-0.8841479999999999,7.225726,6.603292999999999,0.006261399999999998,0.005955999999999989,0.0990184,-0.07510099999999997,-0.017640000000000017,-0.03258050000000001,1,0,0,0,0,0,,,,,,,
65.5,-0.5410769999999999,7.115476599999999,6.765347,0.020883250000000003,-0.045050000000000014,-0.130683,0.265338,0.1186768,0.0986206,1,0,0,0,0,0,52.338823,4.949903,6.0458870000000005,3.92,244.899994,3.790092,2.5
66.0,-0.4515854000000001,7.123492799999998,6.897909599999999,-0.0141106,0.048379000000000005,0.13948699999999994,-0.1691684,0.091523,0.07927580000000001,1,0,0,0,0,0,,,,,,,
66.5,-0.5775674000000001,7.036573599999999,6.776593400000001,0.0030544000000000014,-0.0187834,-0.0606568,-0.05707959999999996,0.005944599999999989,-0.030125399999999986,1,0,0,0,0,0,52.33880900000001,4.94985,6.128845,3.93,244.800003,3.790092,2.5
67.0,-1.545763,6.364609,7.3746800000000015,-0.003237399999999998,0.066949,0.12131420000000001,-0.09554219999999998,0.022595800000000003,0.1546082,1,0,0,0,0,0,,,,,,,
67.5,-1.545763,6.364609,7.3746800000000015,0.040407599999999995,-0.05909920000000001,-0.30948580000000003,0.6084765000000001,0.088051,0.14684375,1,0,0,0,0,0,,,,,,,
68.0,-1.519143,6.629255400000001,7.044410000000001,-0.01634025,-0.044095499999999996,0.36207975,-0.6137808000000001,-0.2296272,0.1510592,1,0,0,0,0,0,52.338794,4.949798,6.201609,3.92,244.5,3.790092,2.5
68.5,0.13226339999999998,7.1289962,6.915676400000001,-0.0012523999999999994,0.09245199999999999,-0.013621799999999998,0.29615640000000004,0.1003106,0.09028960000000001,1,0,0,0,0,0,52.338779,4.949745,6.194172,3.91,243.800003,3.790092,2.5
69.0,-0.6156136,7.384310599999999,6.649594199999999,0.009987200000000002,-0.0704,-0.045508200000000006,-0.04296820000000001,0.12431900000000005,0.03265240000000001,1,0,0,0,0,0,,,,,,,
69.5,-0.743869,7.521539,6.475576000000001,0.004795399999999999,0.16969360000000003,0.11325119999999995,-0.06077999999999995,0.178655,0.10579774999999997,1,0,0,0,0,0,52.338763,4.949694,6.314481,3.87,242.199997,3.790092,2.5
70.0,-0.864527,7.348178999999999,6.501598,0.02015775,-0.12090949999999998,-0.26422925,0.4341388000000001,-0.07144919999999999,0.061802399999999966,1,0,0,0,0,0,,,,,,,
70.5,-0.2578268,7.036812599999999,6.9742406,0.007971800000000001,0.06520799999999999,0.10085099999999997,0.29881080000000004,-0.0025473999999999553,0.1821804,1,0,0,0,0,0,52.338747,4.949642,6.358374,4.0,241.399994,3.790092,2.5
71.0,-0.5651249999999999,6.9723262,6.912206599999998,0.025686200000000003,-0.0696672,-0.17164820000000003,0.5900522,-0.035471,0.2056548,1,0,0,0,0,0,,,,,,,
71.5,-0.345464,7.102197000000001,6.747161999999999,0.007666199999999999,-0.07986819999999999,0.04611919999999997,-0.57149825,0.00326974999999996,0.022365,1,0,0,0,0,0,52.33873,4.94959,6.179182,3.98,241.699997,3.790092,2.5
72.0,-0.345464,7.102197000000001,6.747161999999999,-0.008857199999999999,0.06664339999999999,0.1681664,0.1256326,-0.079582,0.16463180000000002,1,0,0,0,0,0,,,,,,,
72.5,-0.5128416,7.124749199999999,6.8168526,-0.001450749999999998,-0.0436375,-0.07437075,0.05362520000000004,0.127874,-0.020700599999999996,1,0,0,0,0,0,,,,,,,
73.0,0.1555332,7.1593252000000005,6.9659254000000015,-0.0037262,-0.0184476,-0.0830446,0.7720304,0.15266340000000006,0.14240200000000006,1,0,0,0,0,0,52.338714,4.949538,6.400504,3.92,243.5,3.790092,2.5
73.5,-1.468595,6.143572,7.291828,0.009987399999999995,-0.008857599999999998,0.05946600000000001,-0.2203308,0.005422799999999989,-0.050878800000000016,1,0,0,0,0,0,52.338699,4.949486,6.546692,3.92,244.699997,3.790092,2.5
74.0,-1.468595,6.143572,7.291828,0.0020463999999999994,0.045783,-0.0288318,0.08424650000000003,-0.06980349999999999,0.32292999999999994,1,0,0,0,0,0,,,,,,,
74.5,-1.0061222,6.5754766,7.1465238,0.0374525,-0.02000525,-0.14801575,0.8676655999999999,0.06717579999999998,0.16494460000000002,1,0,0,0,0,0,52.338684,4.949435,6.3798330000000005,3.84,245.199997,3.790092,2.5
75.0,-0.970469,7.0685178,6.8263044000000015,0.015943000000000002,-0.13478320000000002,0.0121254,0.005605599999999966,0.05087080000000002,0.06150600000000001,1,0,0,0,0,0,,,,,,,
75.5,-0.8843868,7.0447094,6.651987199999999,-0.011789200000000005,0.019730200000000003,0.030542200000000002,0.20954179999999997,-0.07969980000000003,0.17329479999999994,1,0,0,0,0,0,52.33867100000001,4.949383,6.534325,3.84,247.100006,3.790092,2.5
76.0,-1.508076,6.949953999999999,6.546762999999999,-0.0023209999999999997,-0.093826,0.03423800000000001,0.019649999999999945,0.06673600000000003,-0.03839599999999997,1,0,0,0,0,0,,,,,,,
76.5,-1.1474778,7.070252999999999,6.6378097999999985,-0.002328750000000001,0.129958,0.1979145,-0.6177838000000001,0.05851120000000001,0.16331179999999995,1,0,0,0,0,0,52.338659,4.949331,6.381507,3.69,249.199997,3.790092,2.5
77.0,-0.06711860000000003,7.1072216,6.893183799999997,0.0223572,0.043492600000000006,-0.15576620000000002,0.17383500000000002,0.04698259999999999,0.1039508,1,0,0,0,0,0,,,,,,,
77.5,-0.9738788000000002,6.7832334,6.878049000000001,-0.0096208,0.030389600000000006,0.188935,-0.6174950000000001,-0.05313459999999996,0.0708384,1,0,0,0,0,0,,,,,,,
78.0,-0.7564310000000001,6.584749,6.7402820000000006,0.0197608,-0.006291799999999998,-0.17830619999999994,0.4076824000000001,-0.00603119999999997,0.1028288,1,0,0,0,0,0,52.338647,4.94928,6.428703,3.71,248.699997,3.790092,2.5
78.5,-0.7564310000000001,6.584749,6.7402820000000006,-0.0076662000000000015,-0.0640778,0.0128888,0.047074999999999985,0.2273495,-0.148216,1,0,0,0,0,0,52.338635,4.949228,6.46076,3.86,247.0,3.790092,2.5
79.0,-0.377707,7.081499000000001,6.7756957999999985,-0.00419925,0.09273425000000003,0.13614250000000006,-0.13332079999999993,0.0405804,0.15603199999999995,1,0,0,0,0,0,,,,,,,
79.5,-0.4041474,6.9847687999999994,6.8850482,0.004123400000000001,0.0197304,-0.062123199999999996,0.14828580000000008,-0.06376399999999999,0.0995394,1,0,0,0,0,0,,,,,,,
80.0,-0.08841500000000004,7.154240799999998,7.571548399999999,-0.0010384000000000033,-0.0425762,-0.004825599999999986,-0.03069760000000002,0.07024439999999997,-0.10050159999999997,1,0,0,0,0,0,52.338621,4.949178,6.543413,3.79,244.899994,3.790092,2.5
80.5,0.149252,7.102197000000001,7.939086,0.011362,-0.010811799999999995,-0.07348500000000001,0.6779044999999999,0.02289474999999999,0.3246765,1,0,0,0,0,0,52.338606,4.949127,6.502287,3.89,245.399994,3.790092,2.5
81.0,0.018005800000000027,7.167939800000001,7.4974908,0.0028635,-0.06287925,0.007177500000000005,-0.13865460000000002,0.11887500000000002,-0.050850199999999984,1,0,0,0,0,0,,,,,,,
81.5,-0.04875379999999998,7.1309705999999995,6.9439116000000025,0.0010384000000000003,0.07907420000000001,0.07818839999999999,0.24807880000000004,0.06821700000000007,0.15769940000000002,1,0,0,0,0,0,,,,,,,
82.0,-0.042113600000000105,7.291409,6.722575600000001,0.008826800000000001,-0.004703600000000005,-0.08802320000000001,0.06401320000000002,0.058857800000000016,-0.1033856,1,0,0,0,0,0,52.338592,4.949075,6.486428,3.9,245.399994,3.790092,2.5
82.5,0.788136,7.644171000000003,6.616155000000001,-0.0031766000000000003,-0.010842600000000004,0.08738159999999999,-0.3426,-0.1470145,0.26133625000000005,1,0,0,0,0,0,52.338577,4.949022,6.5323980000000015,3.94,245.899994,3.790092,2.5
83.0,0.6376274000000001,7.551987600000001,6.6786674,0.03294775,-0.03810175,-0.08609125000000001,0.4920128,0.0278304,0.31311940000000005,1,0,0,0,0,0,,,,,,,
83.5,-0.6702893999999999,6.977171799999999,6.698647199999999,-0.0190888,0.0582442,0.1873468,-0.517265,-0.08163739999999997,-0.09391539999999997,1,0,0,0,0,0,52.338563,4.948969,6.6038190000000005,3.94,245.899994,3.790092,2.5
84.0,0.002213399999999992,7.065825599999998,6.825287399999999,0.022204,0.0015273999999999956,-0.12329940000000003,0.2735022,0.009816199999999987,0.031608600000000014,1,0,0,0,0,0,,,,,,,
84.5,-0.016451,5.943771,7.27119,-0.026205400000000004,0.0317948,0.05946600000000001,-0.3765218,0.051964200000000016,0.3129042,1,0,0,0,0,0,52.338548,4.948917,6.54725,3.94,245.100006,3.790092,2.5
85.0,-0.016451,5.943771,7.27119,0.005253200000000003,0.0083686,0.0349406,-0.14633900000000002,-0.0932905,0.19912525,1,0,0,0,0,0,,,,,,,
85.5,-0.29575300000000004,6.8426947999999985,6.660481800000001,-0.00946825,0.0569615,0.0387505,-0.2823814,-0.12370620000000004,0.03215379999999994,1,0,0,0,0,0,52.338533,4.9488650000000005,6.475971,3.9,244.0,3.790092,2.5
86.0,-0.2961716,7.2524062,6.950491799999999,0.032832799999999995,-0.036315,-0.1031416,0.1253718,0.059531599999999976,0.3091206,1,0,0,0,0,0,,,,,,,
86.5,-0.8387440000000002,6.861598599999999,7.318807599999999,-0.005680999999999999,0.005008799999999994,0.042667600000000014,-0.26778179999999996,-0.280829,0.0946002,1,0,0,0,0,0,,,,,,,
87.0,-1.2131610000000002,6.840781,7.892128,0.0385752,-0.0478902,-0.0471574,0.09480900000000003,-0.20926125,0.424065,1,0,0,0,0,0,52.338518,4.948814,6.5733929999999985,3.93,242.899994,3.790092,2.5
87.5,-0.8316852000000001,6.8751777999999995,7.585128599999999,-0.030771499999999997,0.014164000000000003,0.042339499999999995,0.057536000000000004,0.005624399999999985,-0.19241460000000007,1,0,0,0,0,0,,,,,,,
88.0,-0.7526024,6.970411999999999,6.9419374000000005,-0.026297,0.0074827999999999934,-0.009132,-0.3704554,-0.20237320000000006,0.27622140000000006,1,0,0,0,0,0,52.33850200000001,4.948763,6.553444,3.92,242.899994,3.790092,2.5
88.5,-0.6896711999999999,6.9688566000000005,6.876792400000001,0.0031152000000000033,-0.02333419999999999,0.0395828,-6.859999999995204e-05,0.06390359999999999,0.302462,1,0,0,0,0,0,52.338487,4.948712,6.5278800000000015,3.86,243.800003,3.790092,2.5
89.0,-1.2430709999999998,6.937989,6.470192,0.010903600000000005,0.07171340000000001,0.028282400000000006,-0.16172275,-0.19599049999999998,0.07767674999999999,1,0,0,0,0,0,,,,,,,
89.5,-1.2430709999999998,6.937989,6.470192,-0.012369800000000005,-0.0455692,-0.055495399999999986,-0.07172300000000001,0.099087,-0.08913020000000002,1,0,0,0,0,0,52.33847100000001,4.948658999999998,6.49261,4.03,243.899994,3.790092,2.5
90.0,-0.3537788000000001,7.0688168000000005,7.065586400000001,0.011415249999999995,0.03130575,0.02279225,0.17771620000000002,-0.016770200000000023,0.31652179999999996,1,0,0,0,0,0,,,,,,,
90.5,-0.7911868000000001,7.0226354,6.923093799999998,0.0092238,0.010017800000000006,0.0754702,-0.2376964,-0.027038600000000024,0.13884140000000006,1,0,0,0,0,0,52.338455,4.9486050000000015,6.427432,4.0,243.699997,3.790092,2.5
91.0,0.867099,8.156533999999999,6.6302119999999976,0.011575799999999995,-0.041049200000000015,-0.02831279999999998,0.2899162000000001,-0.12044780000000001,-0.07106240000000001,1,0,0,0,0,0,,,,,,,
91.5,0.867099,8.156533999999999,6.6302119999999976,-0.004459000000000003,0.007696800000000002,-0.05836619999999999,0.16249375,0.37484925,0.05327374999999995,1,0,0,0,0,0,52.33844000000001,4.948551,6.410044999999998,4.03,243.600006,3.790092,2.5
92.0,0.29168520000000003,7.495397199999998,6.9859652,0.0005724999999999992,-0.02767925,-0.03439825,0.4890272000000001,-0.013423799999999996,0.10689279999999997,1,0,0,0,0,0,,,,,,,
92.5,-0.6509076,7.121937400000001,6.8275604,0.015882,-0.0008552000000000004,-0.029351,0.10723180000000003,0.15475280000000002,-0.022208200000000032,1,0,0,0,0,0,52.338424,4.948497,6.31911,4.06,244.0,3.790092,2.5
93.0,-0.25046860000000004,7.054160799999999,7.382396000000001,-0.003940000000000001,-0.020616,-0.026052800000000004,0.348487,0.0513704,0.243322,1,0,0,0,0,0,,,,,,,
93.5,0.078365,7.051050000000001,7.910073,-0.0101402,0.0163096,0.06435260000000001,-0.150072,0.11217174999999996,-0.10860874999999996,1,0,0,0,0,0,52.338408,4.948443,6.054531,4.08,244.800003,3.790092,2.5
94.0,0.0112464,7.1523262,7.5537818,-0.0003057499999999998,-0.024663,-0.009773500000000004,0.06252339999999998,-0.010388199999999992,0.04702039999999998,1,0,0,0,0,0,,,,,,,
94.5,-0.40660040000000003,6.880501799999999,6.917411,0.0324666,0.0397358,0.0989266,0.1459478,-0.15111920000000004,0.1156548,1,0,0,0,0,0,52.338394,4.948388,5.9757430000000005,4.1,245.600006,3.790092,2.5
95.0,-0.7335200000000001,7.182774799999999,6.8906112,-0.0343904,-0.04627160000000001,-0.1295608,0.2731438,-0.03811299999999995,-0.015006599999999938,1,0,0,0,0,0,,,,,,,
95.5,-1.706382,6.726522999999999,6.481857,0.0216238,0.0221738,0.1904622,-0.3071514,0.2268492,-0.1253954,1,0,0,0,0,0,52.338379,4.948333,5.837996,4.03,245.699997,3.790092,2.5
96.0,-1.706382,6.726522999999999,6.481857,0.016768,0.017653600000000002,-0.06682660000000001,0.27301075,0.10954275000000004,0.17358275,1,0,0,0,0,0,,,,,,,
96.5,-0.5221739999999999,6.9845894,6.6528844,-0.0037797499999999954,0.05722874999999999,0.0498985,-0.2345486,-0.3553562,0.33914520000000004,1,0,0,0,0,0,52.338364,4.9482800000000005,5.604728,3.98,244.600006,3.790092,2.5
97.0,-0.6092126,7.054459800000001,6.819425,0.008796400000000001,-0.002901400000000003,-0.049387,-0.022990600000000062,-0.1178468,0.168249,1,0,0,0,0,0,,,,,,,
97.5,-0.522832,7.192227000000001,6.683752,0.0079408,-0.010231600000000007,-0.08936699999999999,0.3713112,-0.136796,0.23358220000000002,1,0,0,0,0,0,52.338347,4.948226999999998,5.747985,3.97,242.699997,3.790092,2.5
98.0,-0.522832,7.192227000000001,6.683752,0.008277,0.008551800000000002,0.02809879999999999,0.178255,-0.3241445,0.3020275,1,0,0,0,0,0,,,,,,,
98.5,-0.5930612,6.932486,6.720601400000001,-0.04814225,-0.03332925,0.009468000000000004,0.018168000000000028,-0.2585134,0.3061412,1,0,0,0,0,0,52.33833,4.948176,5.734626,3.96,242.399994,3.790092,2.5
99.0,-0.28588259999999993,7.190073,6.8424558000000015,0.0394302,-0.015087999999999999,0.012980599999999998,0.3016238,-0.07693419999999998,0.2941248,1,0,0,0,0,0,,,,,,,
99.5,-0.6610772,7.413981600000001,6.559444600000001,0.0066581999999999995,-0.0770888,-0.13585239999999998,0.04186720000000002,-0.10632260000000002,0.227322,1,0,0,0,0,0,52.338314,4.948123000000002,5.967299,4.01,243.600006,3.790092,2.5
100.0,-1.057927,7.513463000000001,6.672685,0.0394608,-0.0162792,0.0895196,0.02217450000000001,-0.15180575000000002,0.6631595,1,0,0,0,0,0,,,,,,,
100.5,-1.0419548,7.3009804,6.901259400000002,-0.04695875,0.0230215,-0.007139249999999998,-0.09209719999999998,-0.32821859999999997,0.2012084,1,0,0,0,0,0,52.338299,4.948071,6.1074449999999985,3.88,245.800003,3.790092,2.5
101.0,-0.5571088000000002,6.9973912,6.997989199999999,-0.0079714,-0.0037873999999999976,0.050670000000000014,-0.2444374,-0.2067596,0.3634998000000001,1,0,0,0,0,0,,,,,,,
101.5,-0.3544966,6.942176600000002,7.2775903999999985,-0.023670400000000005,0.055678600000000016,0.049845199999999985,-0.06797400000000002,-0.12892900000000002,0.19303960000000006,1,0,0,0,0,0,52.338285,4.948019,6.0159650000000005,3.84,246.399994,3.790092,2.5
102.0,-0.295514,6.688837,6.7719869999999975,0.055678599999999995,-0.0181118,-0.010995399999999994,-0.05995020000000002,-0.4158145999999999,0.6385382,1,0,0,0,0,0,,,,,,,
102.5,-0.295514,6.688837,6.7719869999999975,-0.028373800000000005,0.061115200000000015,0.05409040000000002,0.10544299999999997,-0.49304499999999996,0.24086675,1,0,0,0,0,0,52.33827,4.947968,5.9889980000000005,3.9,245.300003,3.790092,2.5
103.0,-0.7034900000000001,7.061937599999999,6.3254264000000004,-0.035276249999999995,0.02920625,-0.06421525,-0.067191,-0.3388461999999999,0.1144988000000001,1,0,0,0,0,0,,,,,,,
103.5,-0.4311867999999999,7.014918399999999,6.706962200000001,0.0076355999999999985,-0.0860988,-0.1179852,0.4556856,-0.5267915999999999,0.5141454000000001,1,0,0,0,0,0,,,,,,,
104.0,0.662513,6.1432730000000015,5.406583,0.051586,0.0028406000000000035,0.06139020000000003,0.24034560000000002,-0.6572262,0.5398377999999999,1,0,0,0,0,0,52.338254,4.947917,6.2556699999999985,3.97,243.300003,3.790092,2.5
104.5,0.662513,6.1432730000000015,5.406583,0.0037567999999999994,-0.032344200000000004,0.10378280000000002,-0.09459875,-0.695014,,1,0,0,0,0,0,,,,,,,
105.0,0.3142376000000001,6.7449482000000005,5.5311892,-0.05165499999999999,0.07295800000000001,-0.10441675,0.2550886,-0.20745,-0.5540241999999999,1,0,0,0,0,0,52.338237,4.947865,6.020936,4.05,243.899994,3.790092,2.5
105.5,-0.7268199999999999,6.9902724,6.376453400000001,0.0250752,0.0413848,0.10879219999999998,-0.3112308,-0.5875478,0.17835459999999995,1,0,0,0,0,0,52.338221,4.947813,6.052805,3.98,243.899994,3.790092,2.5
106.0,0.6071192000000001,7.5307508000000025,7.444191000000001,0.027824,-0.024891999999999997,-0.13499719999999998,0.5308870000000001,-0.592424,0.8339413999999999,1,0,0,0,0,0,,,,,,,
106.5,0.9296120000000002,8.140083,7.280163000000001,-0.028068400000000004,-0.04663840000000001,-0.018417199999999998,0.0217705,-0.37171975,0.47061225,1,0,0,0,0,0,52.338205,4.947762,6.056475,4.01,244.300003,3.790092,2.5
107.0,0.9296120000000002,8.140083,7.280163000000001,0.03191680000000001,-0.016798200000000006,-0.03604019999999999,0.30957399999999996,-0.4342756,0.5430570000000001,1,0,0,0,0,0,,,,,,,
107.5,-0.4975274,7.005286999999999,6.7797042,0.0046195,0.053831,0.04527925000000002,0.1527542,-0.441793,0.4430384,1,0,0,0,0,0,52.338189,4.947711,6.203579,3.96,243.699997,3.790092,2.5
108.0,-0.4086342,7.2557558,6.8264835999999995,0.0027488000000000005,-0.08503000000000001,-0.0244644,0.217183,-0.15483039999999998,0.44481499999999996,1,0,0,0,0,0,,,,,,,
108.5,-0.10019959999999993,8.033961999999999,6.5123062,0.0066274,0.0250448,0.0586412,-0.2800806000000001,-0.4243334,0.4702028,1,0,0,0,0,0,52.338173,4.94766,6.202857,3.85,245.300003,3.790092,2.5
109.0,0.396012,8.705089,6.419345,-0.0259608,0.032924600000000005,0.008765600000000017,-0.29216225,-0.25695999999999997,-0.04536050000000001,1,0,0,0,0,0,,,,,,,
109.5,-0.02829520000000003,7.907501399999999,6.4768922,0.03153525,-0.01443125000000001,0.04833325000000002,-0.03265759999999993,-0.11822800000000006,0.4365436,1,0,0,0,0,0,52.33816,4.94761,6.02422,3.71,246.5,3.790092,2.5
110.0,-0.4481158,7.037052,6.804469800000001,-0.022326400000000003,0.029382,0.0077578,-0.1282212,-0.2288094,0.236119,1,0,0,0,0,0,,,,,,,
110.5,0.25447640000000005,7.111110000000001,6.0256062,0.011606199999999995,0.07522580000000001,0.010842399999999995,-0.09616499999999996,-0.1326514,0.2541278,1,0,0,0,0,0,52.338145,4.9475620000000005,6.092042,3.66,245.100006,3.790092,2.5
111.0,1.51675,7.278069,5.459225,0.011300399999999999,-0.0233954,-0.06267320000000001,0.18707299999999996,-0.3139805,0.472852,1,0,0,0,0,0,,,,,,,
111.5,0.9243469999999999,7.1688964,5.773283,-0.00251975,-0.10602,-0.01313325,-0.17270379999999996,-0.0008112000000000009,0.08286460000000001,1,0,0,0,0,0,52.33813,4.947514,6.216689,3.69,244.5,3.790092,2.5
112.0,-0.15756740000000002,7.2193852,6.7212592,0.0023822,0.009712800000000002,-0.010628400000000005,0.2487238,0.0545884,0.048564600000000034,1,0,0,0,0,0,,,,,,,
112.5,-0.5018345999999999,7.0063042,7.1161944,0.013958000000000002,-0.029503800000000007,-0.046974200000000015,-0.009052799999999995,-0.1048368,0.3259266,1,0,0,0,0,0,52.338115,4.947466,6.437709,3.67,244.300003,3.790092,2.5
113.0,-0.338285,6.873383000000001,7.483252999999999,-0.0055586,0.0236092,0.15515520000000002,-0.3162302,-0.16921539999999996,0.3586568,1,0,0,0,0,0,,,,,,,
113.5,-0.338285,6.873383000000001,7.483252999999999,-0.0110564,0.1549414,0.07934900000000003,-0.2555135,-0.13319224999999998,0.012131750000000023,1,0,0,0,0,0,52.338101,4.947418,6.608865,3.61,245.0,3.790092,2.5
114.0,-0.4744968,7.0427352,6.814998200000001,0.0640245,-0.18489575,-0.35746025,0.2842328,-0.0004128000000000132,0.2915768,1,0,0,0,0,0,,,,,,,
114.5,-0.4848456,7.0820370000000015,6.8568724,-0.0187834,0.022784400000000003,0.2235396,-0.07551060000000001,-0.2178368,0.33540420000000004,1,0,0,0,0,0,,,,,,,
115.0,0.9990033999999998,6.4246094000000005,7.8278204,0.0279464,-0.0058336,-0.16529520000000003,0.17540079999999997,-0.08355999999999998,0.239768,1,0,0,0,0,0,52.338086,4.947369,6.6534330000000015,3.69,244.0,3.790092,2.5
115.5,1.297508,6.229714,7.864310999999999,-0.024434,-0.09006979999999999,0.13933420000000002,-0.24224625000000005,-0.162912,0.08566324999999997,1,0,0,0,0,0,52.338072,4.947319,6.470828,3.69,244.600006,3.790092,2.5
116.0,0.5340181999999999,6.687221600000001,7.479246000000002,0.02985525,0.12606375,0.0865495,-0.08559400000000003,-0.2168516,0.402982,1,0,0,0,0,0,,,,,,,
116.5,-0.48562340000000004,7.3462048,6.4904116,-0.011881,0.034757200000000016,-0.07479839999999999,-0.12611519999999998,0.07370260000000001,-0.06640819999999999,1,0,0,0,0,0,52.338058,4.94727,6.4130400000000005,3.68,244.300003,3.790092,2.5
117.0,-0.15678999999999993,7.038786999999999,6.855137999999998,0.024220000000000002,-0.018722599999999995,-0.0674068,0.3746676,0.05824380000000001,0.08021239999999999,1,0,0,0,0,0,,,,,,,
117.5,0.10289100000000002,6.945766000000001,6.683453,0.0012216000000000006,0.0419346,0.064597,-0.016864749999999998,-0.28520875,0.5179545000000001,1,0,0,0,0,0,52.338042,4.9472190000000005,6.44137,3.81,244.0,3.790092,2.5
118.0,-0.33714900000000003,7.0099534000000014,6.6769326000000015,-0.00866625,-0.021456250000000003,0.0473025,-0.333471,0.0108282,0.07683940000000003,1,0,0,0,0,0,,,,,,,
118.5,0.0421136,7.0954368,6.9145395999999995,0.0125528,-0.0222044,-0.1307518,0.7883031999999999,-0.04150579999999999,0.2413776,1,0,0,0,0,0,52.338026,4.9471680000000005,6.301547,3.81,242.800003,3.790092,2.5
119.0,-0.5806184,7.2432538,6.634579400000001,-0.0001222000000000001,-0.0573586,-0.004398000000000003,0.212909,0.04441899999999999,0.0340384,1,0,0,0,0,0,,,,,,,
119.5,-0.8721840000000001,6.749853999999999,6.945466999999999,-0.004520199999999999,-0.0093154,0.002046199999999998,0.408818,-0.145004,0.3385718,1,0,0,0,0,0,52.338011,4.947117,6.357526999999998,3.77,244.699997,3.790092,2.5
120.0,-0.8721840000000001,6.749853999999999,6.945466999999999,-0.0015272000000000007,-0.058335800000000014,0.0037872000000000023,0.0901125,-0.06843474999999996,0.15235425,1,0,0,0,0,0,,,,,,,
120.5,-0.4116850000000001,7.075636399999999,6.8873212,-0.0008782499999999997,0.08227325,0.1968835,-0.30580219999999986,-0.2929992,0.4264712000000001,1,0,0,0,0,0,52.337996,4.947065,6.3085260000000005,3.88,245.800003,3.790092,2.5
121.0,-0.0254838,7.1950384000000005,6.817690000000002,0.0274272,0.06065719999999999,-0.18844660000000002,0.5789141999999999,-0.058397600000000015,0.2617762,1,0,0,0,0,0,,,,,,,
121.5,-1.2385252000000002,6.755656400000001,6.566503999999999,-0.0071467999999999966,-0.0921464,0.15827059999999998,-0.3839608000000001,-0.372136,0.35738839999999994,1,0,0,0,0,0,52.337982,4.947012,6.38837,3.85,246.300003,3.790092,2.5
122.0,-1.41027,6.680761000000001,6.39781,0.0063528000000000005,0.09339860000000001,0.027976599999999997,0.4115235,0.06322475000000001,0.17609,1,0,0,0,0,0,,,,,,,
122.5,-0.9604790000000001,7.031907600000001,6.359285399999999,0.003168749999999999,-0.03768175,-0.19367675,0.29303920000000006,0.10901400000000004,0.022276600000000025,1,0,0,0,0,0,52.337967,4.946961,6.385878,3.75,245.0,3.790092,2.5
123.0,-0.6611968,6.950551600000001,6.9019774000000025,-0.011728200000000001,-0.008002200000000004,0.1943412,-0.1770912,-0.14453359999999998,0.16189260000000003,1,0,0,0,0,0,,,,,,,
123.5,-0.0975074,7.266643399999999,6.795796000000001,0.022937400000000004,0.08628219999999999,-0.11804620000000003,0.2957128,0.14223619999999998,0.071074,1,0,0,0,0,0,52.337952,4.946911,6.379114,3.7,244.100006,3.790092,2.5
124.0,-0.553041,7.1715880000000025,6.598807000000001,0.022509400000000002,-0.055648199999999995,-0.06197040000000001,0.183443,-0.010917500000000007,-0.010831500000000018,1,0,0,0,0,0,,,,,,,
124.5,-0.553041,7.1715880000000025,6.598807000000001,0.0090404,-0.016798600000000004,0.009895799999999995,0.5937804,0.06077659999999999,0.2324064,1,0,0,0,0,0,52.337936,4.946861,6.418369,3.81,243.399994,3.790092,2.5
125.0,-1.0255638,7.1142204000000016,6.809135799999997,-0.02542675,-0.00649025,0.08719825,-0.4521234,0.012640399999999986,0.08138700000000001,1,0,0,0,0,0,,,,,,,
125.5,0.0891326,7.076773200000001,6.9035922,0.009254399999999998,-0.046852000000000005,-0.0345128,0.48164399999999996,-0.0319482,0.16972899999999996,1,0,0,0,0,0,,,,,,,
126.0,0.334098,6.588039,8.011768,-0.0113924,0.11465580000000003,0.11248760000000002,-0.3327198,0.1089182,-0.06963159999999999,1,0,0,0,0,0,52.33792,4.946812,6.716414,3.75,244.100006,3.790092,2.5
126.5,0.334098,6.588039,8.011768,0.010995200000000002,-0.07256880000000003,-0.1134952,0.14959825000000002,-0.06601750000000006,0.06703450000000004,1,0,0,0,0,0,52.337905,4.946763,6.7759350000000005,3.72,244.800003,3.790092,2.5
127.0,-0.5450252000000001,6.7344796,7.2832734000000015,0.00813175,-0.06665850000000001,0.032947750000000026,0.04580900000000003,-0.09144539999999997,0.1853972,1,0,0,0,0,0,,,,,,,
127.5,-0.3605386,7.531050400000002,6.587560399999999,-0.0008855999999999989,0.1161222,0.125132,-0.22714920000000002,0.4109380000000001,-0.14415019999999998,1,0,0,0,0,0,52.337891,4.946714,6.990487,3.71,245.199997,3.790092,2.5
128.0,-0.33529440000000005,7.332864999999999,7.158787400000001,0.001160399999999999,-0.06820119999999999,-0.186675,0.6070222,-0.13904560000000005,0.2762146,1,0,0,0,0,0,,,,,,,
128.5,-0.651446,7.562216999999999,7.180262999999999,0.0023520000000000025,0.053266,0.0953532,-0.3942775,-0.13373600000000005,0.11615149999999998,1,0,0,0,0,0,,,,,,,
129.0,-0.3785446,7.3784481999999985,7.032805199999999,0.01729475,-0.05638875,-0.03775775,0.06534900000000002,0.0583424,0.14033479999999998,1,0,0,0,0,0,52.337876,4.9466660000000005,6.825888000000001,3.71,245.199997,3.790092,2.5
129.5,-0.4051646,6.9871019999999975,6.8939614,-0.000641400000000001,0.0010386000000000006,0.0183558,0.09902400000000004,-0.06778839999999998,0.11067139999999999,1,0,0,0,0,0,52.337862,4.946619,6.833958,3.63,245.300003,3.790092,2.5
130.0,-0.3726225999999999,7.4306714000000005,6.489335,-0.010017799999999995,0.006322199999999996,-0.02458660000000001,-0.0911514,0.24002359999999998,-0.06480160000000001,1,0,0,0,0,0,,,,,,,
130.5,-0.08584299999999999,7.442276,6.149853,0.00024439999999999906,-0.010506599999999996,0.06059620000000001,0.350756,-0.041839750000000016,0.2003815,1,0,0,0,0,0,52.337848,4.946572,6.806017999999999,3.61,244.699997,3.790092,2.5
131.0,-0.08584299999999999,7.442276,6.149853,0.004001200000000001,0.0957502,0.030603600000000012,-0.30488000000000004,0.017899800000000018,-0.041810400000000005,1,0,0,0,0,0,,,,,,,
131.5,-0.5548955999999999,7.1595048000000014,6.7771316000000015,-0.0005345000000000003,-0.06956025,-0.006528250000000006,-0.03065940000000005,0.04368000000000001,0.060718600000000005,1,0,0,0,0,0,,,,,,,
132.0,0.04331000000000003,7.145805800000001,6.939664200000001,0.012278,0.0583052,-0.012064399999999998,0.4677299999999999,0.034137600000000004,0.211077,1,0,0,0,0,0,52.337833,4.946526,6.650575,3.57,243.100006,3.790092,2.5
132.5,-0.125025,7.118049000000001,7.118049000000001,0.021440599999999997,-0.11132680000000003,-0.1915006,0.2959482,0.0605424,0.0798716,1,0,0,0,0,0,,,,,,,
133.0,-0.125025,7.118049000000001,7.118049000000001,-0.004306599999999997,-0.0471878,0.07632520000000001,0.02789249999999996,-0.11982900000000002,0.19925775,1,0,0,0,0,0,52.337817,4.946482,6.8316789999999985,3.6,242.0,3.790092,2.5
133.5,-0.263091,7.222077200000001,6.8736222000000025,0.0042380000000000004,0.15847650000000002,0.108311,0.05730399999999997,0.08814780000000001,0.10041039999999997,1,0,0,0,0,0,,,,,,,
134.0,-0.6823732,6.9617976,6.7957360000000016,0.0171952,-0.17464100000000002,-0.1850866,0.1312254,-0.14543019999999998,0.0982272,1,0,0,0,0,0,52.337801,4.946437,6.8952300000000015,3.53,242.699997,3.790092,2.5
134.5,-0.5767899999999999,7.2932635999999995,6.659942999999999,-0.0120948,0.0374146,0.1380516,0.11000140000000004,0.20576060000000002,0.04051239999999999,1,0,0,0,0,0,,,,,,,
135.0,-0.378066,7.3908309999999995,6.59761,0.0080022,0.0920854,0.1001486,-0.56931975,0.05372599999999997,-0.036664999999999996,1,0,0,0,0,0,52.337787,4.946391,6.942058,3.65,245.0,3.790092,2.5
135.5,-0.1197608,7.4582488,6.5487964000000005,0.0012597500000000024,-0.0348565,-0.12404025,0.1983678,0.2004648,-0.023782999999999974,1,0,0,0,0,0,,,,,,,
136.0,-0.350429,7.214898799999999,6.768218400000001,0.0097736,0.0559842,-0.025563800000000005,0.24029700000000004,0.134347,0.0201096,1,0,0,0,0,0,52.337773,4.946344,7.067866,3.53,246.100006,3.790092,2.5
136.5,-0.9982854,7.0222762,6.795317200000001,0.015973800000000003,-0.14052540000000002,-0.040224399999999993,-0.210063,-0.08534080000000001,0.0963414,1,0,0,0,0,0,,,,,,,
137.0,-0.7660020000000001,6.483951,7.475178,-0.018264,0.0428508,0.0002138000000000084,0.5272935999999999,0.22920460000000004,-0.08603820000000001,1,0,0,0,0,0,52.33775900000001,4.946296,7.065194,3.76,246.399994,3.790092,2.5
137.5,-0.7660020000000001,6.483951,7.475178,0.0026877999999999984,-0.062398,-0.01688980000000001,-0.4509595000000001,0.08570100000000001,-0.11239325,1,0,0,0,0,0,,,,,,,
138.0,-0.352702,6.992545599999999,6.959285200000001,0.0124845,0.027946,0.16447050000000002,-0.6107478000000001,0.015151800000000019,0.0755802,1,0,0,0,0,0,52.337745,4.946246,6.935323,3.84,246.0,3.790092,2.5
138.5,-0.3738188,7.164828599999999,6.8928844,0.006536,0.09214639999999999,0.019822,-0.24653699999999998,0.048384599999999986,0.15718700000000002,1,0,0,0,0,0,52.33773,4.946195,7.1221630000000005,3.91,245.899994,3.790092,2.5
139.0,-1.085444,6.5967129999999985,6.942775,-0.0110562,-0.0298706,0.016187399999999998,-0.3394018,-0.021642000000000012,0.0032836000000000037,1,0,0,0,0,0,,,,,,,
139.5,-1.085444,6.5967129999999985,6.942775,0.012980600000000002,0.14926040000000002,-0.0018627999999999922,0.3058805,0.13715950000000002,0.08818150000000001,1,0,0,0,0,0,52.337715,4.946144,7.395549000000001,3.93,244.600006,3.790092,2.5
140.0,-1.0759326000000002,6.7499734,7.0095946,0.03275675,-0.22979325,-0.25743375,0.10337919999999999,-0.06089260000000001,0.1351114,1,0,0,0,0,0,,,,,,,
140.5,-0.14739779999999994,7.1495148,6.8758355999999985,-0.0054670000000000005,0.0869542,0.1874998,0.13089459999999994,-0.018453199999999996,0.2004454,1,0,0,0,0,0,,,,,,,
141.0,-0.9930814,7.031010599999999,6.644988199999999,0.004398,-0.052654999999999993,-0.10750919999999996,0.02200200000000005,-0.029500400000000013,-0.05684159999999998,1,0,0,0,0,0,52.337699,4.946093,7.391774000000002,3.89,243.800003,3.790092,2.5
141.5,-1.6800609999999998,6.932905,6.594319999999999,-0.0035734,-0.016981600000000003,0.13475299999999998,-0.19863775,-0.01887025,0.14607175,1,0,0,0,0,0,,,,,,,
142.0,-1.6800609999999998,6.932905,6.594319999999999,0.0282822,0.060962399999999986,-0.1531394,0.46738959999999996,0.055753800000000006,0.2557494,1,0,0,0,0,0,52.337684,4.9460419999999985,7.382447,3.87,244.600006,3.790092,2.5
142.5,-0.9239886,6.9653872,6.8275606,0.0006870000000000001,-0.13098900000000002,0.007902750000000007,-0.005902400000000011,-0.156358,0.1597682,1,0,0,0,0,0,52.337669,4.945991,7.749217,3.93,245.199997,3.790092,2.5
143.0,0.12598199999999998,7.234459999999999,6.781199600000001,0.0024434,0.0060471999999999965,-0.06658240000000001,0.6922020000000001,0.11282740000000002,0.07377919999999999,1,0,0,0,0,0,,,,,,,
143.5,0.457328,6.834799000000001,7.092027000000001,-0.0087046,-0.004275999999999999,0.056869800000000026,-0.5062044,0.004016600000000014,0.029711199999999993,1,0,0,0,0,0,52.337656,4.945939,7.729759,3.77,247.0,3.790092,2.5
144.0,0.457328,6.834799000000001,7.092027000000001,0.015087799999999997,-0.0955058,-0.021807199999999992,0.2317955,0.02670425,-0.06796749999999999,1,0,0,0,0,0,,,,,,,
144.5,-0.267757,6.956952600000001,6.941997200000001,0.00813175,0.1017825,0.06715499999999999,-0.4108448,0.07452560000000001,0.027502600000000002,1,0,0,0,0,0,52.337643,4.945887,7.799109,3.85,248.0,3.790092,2.5
145.0,-0.4831110000000001,7.148138999999999,7.012286399999999,-0.00033580000000000003,0.012400000000000005,0.09889620000000003,-0.3593932000000001,0.051706599999999964,0.2553306,1,0,0,0,0,0,,,,,,,
145.5,0.2258226,7.0204222000000005,6.954798800000002,-0.009681799999999999,0.0186612,-0.0893058,0.3943713999999999,-0.0009108000000000117,0.043201800000000026,1,0,0,0,0,0,,,,,,,
146.0,0.099003,6.752844999999999,7.431808000000001,0.006046999999999999,-0.015821,-0.021318599999999997,-0.32568375000000005,0.233055,-0.2943955,1,0,0,0,0,0,52.337631,4.945833,7.884144,3.86,249.399994,3.790092,2.5
146.5,0.1115056,6.9101132,7.1643502,0.01290425,-0.06570400000000001,-0.13839500000000002,0.5927415999999999,0.08081699999999997,0.10601860000000002,1,0,0,0,0,0,,,,,,,
147.0,-0.8142773999999999,7.0669026000000015,6.8141008,0.0052228000000000005,0.0069026000000000035,0.015698800000000006,-0.1316408,-0.12369480000000005,0.19078560000000008,1,0,0,0,0,0,52.337619,4.94578,7.818178,3.85,248.899994,3.790092,2.5
147.5,-0.4756332,7.1042304000000005,6.6903918,-0.0046729999999999975,-0.1511234,0.059557399999999976,-0.1734486,-0.08951059999999998,0.1935104,1,0,0,0,0,0,52.337607,4.945725,7.754653,3.95,249.800003,3.790092,2.5
148.0,-0.175872,7.382455999999999,6.234499,0.0122478,0.14464860000000002,0.06533019999999998,-0.32594625000000005,-0.017270999999999974,0.20168599999999998,1,0,0,0,0,0,,,,,,,
148.5,-0.175872,7.382455999999999,6.234499,-0.006016800000000003,0.0003664000000000056,0.0262664,-0.5217062,-0.0838482,0.122706,1,0,0,0,0,0,,,,,,,
149.0,0.2305482,7.3033732,6.7578098,-0.007368249999999998,0.131905,0.12751425,0.3616097999999999,0.22344299999999997,-0.016046200000000017,1,0,0,0,0,0,52.337594,4.945671,7.522976,3.89,249.600006,3.790092,2.5
149.5,-0.6078368000000001,7.2363740000000005,6.680641199999998,0.006505599999999998,0.005925200000000001,-0.091963,-0.020156799999999992,0.126531,-0.037591800000000015,1,0,0,0,0,0,52.337582,4.945616,7.452675,3.92,249.0,3.790092,2.5
150.0,0.03637079999999997,7.180322199999999,6.530970000000001,0.013011000000000002,-0.07907420000000001,-0.0450194,0.484709,-0.0236716,0.12566960000000002,1,0,0,0,0,0,,,,,,,
150.5,0.404686,7.504789,6.190232,0.0031766000000000003,0.0714998,0.00995659999999998,-0.243402,0.06640499999999999,0.0997895,1,0,0,0,0,0,52.337568,4.945563,7.643909,3.99,246.5,3.790092,2.5
151.0,-0.042353,7.206104999999999,6.734778599999999,0.01420225,-0.06226825,-0.033787500000000005,0.34580879999999997,-0.0016128000000000015,0.122283,1,0,0,0,0,0,,,,,,,
151.5,-0.43597240000000004,7.1285776,6.764509799999999,0.0005191999999999973,0.009681999999999993,0.05421260000000002,0.2414054,0.004921999999999982,0.06978079999999999,1,0,0,0,0,0,,,,,,,
152.0,-0.321655,7.353981599999999,6.423652200000001,0.0011914000000000002,-0.0841442,-0.046393800000000006,0.017234200000000022,0.12583320000000006,-0.01902700000000001,1,0,0,0,0,0,52.337554,4.945509,7.7490830000000015,3.96,247.300003,3.790092,2.5
152.5,-0.334995,7.274181,6.337391,0.0019240000000000019,0.07412619999999999,0.017042599999999998,0.4310795000000001,0.16872475,0.0064192500000000005,1,0,0,0,0,0,,,,,,,
153.0,-0.3818944,7.214420199999998,6.388417800000001,0.0142785,-0.09708675,-0.17279375,0.1963148,0.08855980000000002,-0.018052999999999996,1,0,0,0,0,0,52.337541,4.945454,7.664376,4.02,248.100006,3.790092,2.5
153.5,-0.6716652,7.167640400000002,6.8074010000000005,-0.036315,-0.015606799999999999,0.1926918,-0.3860602,0.05742500000000004,0.0715444,1,0,0,0,0,0,,,,,,,
154.0,0.12460619999999994,7.1397042,6.894619199999998,0.046577,0.08900040000000001,-0.1301104,0.4923244000000001,0.010103800000000008,0.1886756,1,0,0,0,0,0,52.337528000000006,4.945399,7.661092,4.04,250.100006,3.790092,2.5
154.5,-0.198006,6.9604219999999986,6.818647,-0.005344799999999999,-0.04853180000000001,0.1387234,-0.518133,-0.07032140000000002,0.015173599999999975,1,0,0,0,0,0,,,,,,,
155.0,-0.198006,6.9604219999999986,6.818647,0.0137136,0.04227080000000001,-0.0996902,0.45554825,0.21443825,0.10817225,1,0,0,0,0,0,52.337515,4.945343,7.6171570000000015,4.12,248.800003,3.790092,2.5
155.5,-0.4670189999999999,7.054041000000001,6.9381088,0.00198525,-0.04581325,0.035162,-0.1538722,-0.14830100000000002,0.2241588,1,0,0,0,0,0,52.337501,4.945287,7.5449009999999985,4.11,248.600006,3.790092,2.5
156.0,-0.378365,7.108059,6.856035199999999,0.004734199999999999,0.022021000000000002,0.006597199999999999,0.06562380000000001,0.015672999999999996,0.10782740000000003,1,0,0,0,0,0,,,,,,,
156.5,-1.4819944,6.932306,6.2377892,-0.0102012,-0.0398272,0.055648,-0.4305628,-0.08967820000000001,0.01576239999999999,1,0,0,0,0,0,,,,,,,
157.0,-1.589432,6.818946,6.143871,-0.0104762,0.0535102,0.09685,0.34865749999999995,0.16272699999999996,0.09491125000000003,1,0,0,0,0,0,52.337488,4.945232,7.658925,4.02,248.0,3.790092,2.5
157.5,-1.0365703999999998,6.9546790000000005,6.437889200000001,0.02340325,0.0408885,-0.2043285,-0.07022320000000003,0.05575400000000001,0.029122399999999993,1,0,0,0,0,0,52.337475,4.945178,7.774354,3.93,248.5,3.790092,2.5
158.0,-0.5808580000000001,6.8306710000000015,7.131628400000001,-0.006413999999999998,-0.03341320000000001,0.0947732,-0.1889178,-0.2843298,0.4043516,1,0,0,0,0,0,,,,,,,
158.5,-0.6529415999999999,7.252525800000001,6.734121000000001,0.016981600000000003,0.0590994,-0.045508000000000014,0.13100640000000002,0.15517779999999998,0.010376800000000023,1,0,0,0,0,0,,,,,,,
159.0,-0.990928,7.530512,6.500103,0.0021379999999999984,-0.073424,-0.028770999999999998,-0.2891815,-0.1412745,0.07735800000000001,1,0,0,0,0,0,52.337463,4.945124,7.682509,3.85,248.600006,3.790092,2.5
159.5,-0.990928,7.530512,6.500103,0.0010994000000000015,-0.003268199999999999,-0.0697586,0.4747012000000001,0.11686159999999997,0.08918480000000001,1,0,0,0,0,0,52.33745,4.945072,7.9184839999999985,3.82,247.899994,3.790092,2.5
160.0,-1.0824531999999998,7.1025556,6.902096799999999,-0.005917499999999999,0.013972999999999994,0.21207849999999998,-0.6167661999999999,-0.00025720000000000186,0.17168860000000002,1,0,0,0,0,0,,,,,,,
160.5,0.4616353999999999,7.256474000000001,6.761997199999999,0.038086199999999994,-0.086618,-0.2867316,1.0875313999999998,0.12068600000000004,0.08126119999999999,1,0,0,0,0,0,52.337437,4.945019,7.957986,3.83,248.300003,3.790092,2.5
161.0,-1.244567,6.504589,7.116553999999999,-0.008277000000000001,0.031428,0.17787879999999995,-0.2395570000000001,-0.10819960000000002,0.0906854,1,0,0,0,0,0,,,,,,,
161.5,-1.244567,6.504589,7.116553999999999,-0.006291800000000003,0.06499400000000001,0.1208562,-0.7358322500000001,-0.17563925,0.22495350000000006,1,0,0,0,0,0,,,,,,,
162.0,-1.0502098,6.653302999999998,7.028258599999999,0.02641925,-0.05841225000000001,-0.17405325,0.5773428,0.005363599999999968,0.1712612,1,0,0,0,0,0,52.337425,4.944967,8.017510000000001,3.73,249.300003,3.790092,2.5
162.5,-0.6597012,7.191867599999999,6.8105716,-0.0116062,0.03387140000000001,0.07018619999999999,-0.047804600000000017,0.06730180000000001,0.11014020000000001,1,0,0,0,0,0,,,,,,,
163.0,-0.6131604,7.590272799999998,6.182455200000001,0.0047644,0.026480200000000002,-0.03338300000000001,0.5940466000000001,0.16004100000000002,0.015029799999999982,1,0,0,0,0,0,52.337413,4.944915,8.064338000000001,3.83,249.5,3.790092,2.5
163.5,-0.7896310000000001,7.748259,6.039783,0.005344799999999999,-0.0076050000000000015,0.0813342,0.04635800000000004,-0.03623450000000001,0.041495,1,0,0,0,0,0,52.337402,4.944863,8.007102,3.84,249.5,3.790092,2.5
164.0,-0.6287138000000001,7.630053599999999,6.1659445999999996,0.00786475,-0.08842025,-0.193257,0.38828559999999995,0.03355579999999999,0.13013840000000002,1,0,0,0,0,0,,,,,,,
164.5,-0.811167,6.9080788,6.966882400000001,-0.024128600000000004,0.09416220000000003,0.17060959999999994,-0.26197,-0.1994156,0.24334499999999998,1,0,0,0,0,0,,,,,,,
165.0,-0.3458226,7.112186800000001,6.823732000000001,0.0200664,-0.1195428,-0.10659280000000002,0.27954080000000003,0.01992519999999997,0.0909714,1,0,0,0,0,0,52.337389,4.9448120000000015,8.109472,3.83,248.100006,3.790092,2.5
165.5,0.591326,6.888039000000001,7.092924999999998,-0.01295,0.1058598,0.1262926,0.008349799999999984,0.0486972,0.1147296,1,0,0,0,0,0,52.337377,4.94476,7.878773,3.75,248.100006,3.790092,2.5
166.0,0.591326,6.888039000000001,7.092924999999998,0.0020767999999999967,-0.019577599999999997,-0.08429679999999999,0.179224,0.13045374999999998,-0.06368975000000003,1,0,0,0,0,0,,,,,,,
166.5,0.049411800000000006,6.994639599999998,7.062834799999999,0.01233175,0.016149250000000004,-0.011682499999999998,0.211842,0.06372,0.149979,1,0,0,0,0,0,,,,,,,
167.0,-0.32506500000000005,7.200481999999999,6.747520599999999,0.0214406,-0.05851900000000001,-0.1525898,0.3760126,0.12420340000000005,0.004527199999999998,1,0,0,0,0,0,52.337364,4.944709,8.009402,3.78,248.300003,3.790092,2.5
167.5,-1.5797413999999999,6.584090399999999,6.9347592,-0.011941999999999998,-0.056014600000000005,0.18902660000000002,-0.5692951999999999,-0.025374000000000008,0.0946288,1,0,0,0,0,0,,,,,,,
168.0,-2.152643,6.4184470000000005,7.026524,0.0113312,0.14938279999999998,-0.0034208000000000016,0.049676,0.06688150000000001,0.11018475,1,0,0,0,0,0,52.337352,4.944657,7.987931,3.84,249.100006,3.790092,2.5
168.5,-1.7761323999999998,6.6338610000000005,6.97783,0.006337250000000001,-0.14736700000000005,-0.12144400000000001,-0.0758534,0.028725399999999974,-0.03322700000000002,1,0,0,0,0,0,52.33734000000001,4.944602,7.911405999999999,4.0,250.199997,3.790092,2.5
169.0,-0.3183054,7.1418578,6.789095800000001,-0.005405999999999998,0.0659104,0.16764720000000002,-0.10918719999999996,0.1005812,-0.023417800000000003,1,0,0,0,0,0,,,,,,,
169.5,-0.44829540000000007,7.0956166,6.8906114,0.0173174,0.0636806,-0.0581526,0.06049139999999996,0.03413959999999997,0.1148032,1,0,0,0,0,0,52.337328,4.944547,7.927165,3.87,249.800003,3.790092,2.5
170.0,-0.572184,6.927222,7.052247,0.006657999999999999,-0.12424639999999998,-0.0718966,0.14468949999999994,0.0465325,-0.016241,1,0,0,0,0,0,,,,,,,
170.5,-0.572184,6.927222,7.052247,-0.0116978,0.0686592,0.05467080000000002,0.09427979999999997,0.08569820000000003,0.12747160000000002,1,0,0,0,0,0,52.337315,4.9444930000000005,7.852042,3.96,249.100006,3.790092,2.5
171.0,-0.4869992,7.0060052,6.9638318,0.0194325,-0.09910975,-0.1030805,0.0632494,-0.07627979999999998,0.2128174,1,0,0,0,0,0,,,,,,,
171.5,-0.3751350000000001,7.032086799999999,6.903412599999999,-0.0011912000000000005,0.12045879999999999,0.229312,-0.2080972,-0.053461,0.13647179999999998,1,0,0,0,0,0,52.337301,4.944439,7.765872,3.92,248.300003,3.790092,2.5
172.0,-0.124427,8.066504,6.609574,0.004031600000000001,-0.019975,-0.15649900000000005,0.019237600000000032,0.09060499999999994,-0.0003095999999999988,1,0,0,0,0,0,,,,,,,
172.5,-0.124427,8.066504,6.609574,0.0074525999999999985,-0.0727824,-0.004215000000000003,0.5378785,0.12185,-0.0284845,1,0,0,0,0,0,52.337287,4.944386,7.819653999999999,3.96,248.100006,3.790092,2.5
173.0,-0.4462018,7.348836800000001,6.7932234000000005,0.01004075,0.028748000000000003,0.06368075000000001,-0.1823372,0.08563099999999997,0.11289040000000004,1,0,0,0,0,0,,,,,,,
173.5,-0.6018548,6.840063000000002,6.9790860000000015,-0.000702400000000003,0.07149960000000002,0.13389779999999998,-0.4967434,-0.26319000000000004,0.22854699999999997,1,0,0,0,0,0,52.337273,4.944332,7.446496000000002,3.99,247.800003,3.790092,2.5
174.0,0.8288738000000001,7.396633400000002,6.603113400000001,0.016890000000000002,0.0954448,-0.136372,0.3940986000000001,0.07088660000000001,0.17087819999999998,1,0,0,0,0,0,,,,,,,
174.5,0.9188440000000002,7.135696,6.682256,0.0062612,-0.2020988,-0.10185860000000004,0.49158450000000004,0.036256249999999976,0.19071150000000006,1,0,0,0,0,0,52.337259,4.944278,7.5715059999999985,3.97,247.399994,3.790092,2.5
175.0,0.3903890000000001,6.9921266000000015,6.835695799999999,0.02046325,0.06387200000000001,0.13919675,-0.020387000000000037,-0.0837228,0.1078612,1,0,0,0,0,0,,,,,,,
175.5,-0.4768298,7.233562600000001,6.787360799999999,-0.014843399999999996,-0.0189364,-0.106868,0.0542462,0.15179279999999998,0.034820000000000004,1,0,0,0,0,0,52.337245,4.944225,7.5955020000000015,3.97,248.0,3.790092,2.5
176.0,-0.4867597999999999,7.007201400000001,6.8974308,0.0016189999999999967,0.0002748000000000003,0.07024739999999999,-0.04266079999999999,-0.01182780000000002,0.07355199999999999,1,0,0,0,0,0,,,,,,,
176.5,0.388834,7.054639,7.176075,0.0098958,-0.015363000000000003,0.017103799999999992,0.07435349999999999,-0.000474500000000004,0.16061400000000006,1,0,0,0,0,0,52.337231,4.944171,7.525933,3.94,249.0,3.790092,2.5
177.0,0.388834,7.054639,7.176075,0.0135608,0.04172079999999999,-0.08683199999999999,-0.1916586,0.032969800000000014,0.11081679999999998,1,0,0,0,0,0,,,,,,,
177.5,-0.4002594,7.0605018,6.8510102,-0.004314,-0.03894125,0.008284250000000003,0.3361342,0.035978000000000024,0.057695800000000005,1,0,0,0,0,0,,,,,,,
178.0,-0.7032506,6.933801600000001,6.9689164,-0.0030543999999999988,0.0305118,0.10118680000000002,-0.25325859999999994,-0.05553920000000001,0.11532040000000003,1,0,0,0,0,0,52.337218,4.9441180000000005,7.537786,3.83,248.899994,3.790092,2.5
178.5,0.50668,6.926922,7.1449690000000015,0.0066581999999999995,-0.042514800000000005,-0.09721620000000003,0.3855966000000001,0.08811880000000001,0.06894900000000001,1,0,0,0,0,0,,,,,,,
179.0,0.50668,6.926922,7.1449690000000015,-0.0013135999999999994,0.031672399999999996,0.08353340000000001,-0.444714,0.175145,-0.07334774999999999,1,0,0,0,0,0,52.337205,4.944066,7.444292999999999,3.78,248.800003,3.790092,2.5
179.5,-0.07806600000000001,7.024070999999998,6.9498938,0.0009927500000000006,-0.011606250000000002,0.01649275,0.0910156,-0.029120000000000014,0.17049920000000002,1,0,0,0,0,0,52.337192,4.944015,7.437042999999999,3.72,248.300003,3.790092,2.5
180.0,-0.2089532,7.109733800000001,6.862914400000001,0.008185399999999999,0.008948799999999995,-0.128797,0.366768,0.11909639999999995,0.0204552,1,0,0,0,0,0,,,,,,,
180.5,-1.4311476,6.8361148,7.0249684000000014,-0.0097734,-0.049509,0.12937760000000004,-0.3263066000000001,-0.013261000000000012,0.156977,1,0,0,0,0,0,52.337179,4.943964,7.473189,3.67,248.800003,3.790092,2.5
181.0,-1.398007,6.722036999999999,7.213463000000003,0.0091932,0.0992018,0.0628866,0.055061500000000006,0.02419675,-0.045845750000000005,1,0,0,0,0,0,,,,,,,
181.5,-1.4599212,6.751049999999998,7.046503800000001,0.018593,-0.04081225,-0.15950750000000002,0.014664400000000022,0.1208552,-0.002404599999999968,1,0,0,0,0,0,52.337166,4.9439129999999984,7.512266,3.66,248.0,3.790092,2.5
182.0,-0.3394818,7.076055200000001,6.922794999999999,-0.0068108000000000005,-0.026297000000000004,0.070064,0.15033879999999994,0.039455999999999984,0.11960320000000002,1,0,0,0,0,0,,,,,,,
182.5,-0.3903892,7.043273599999999,6.7587069999999985,-0.009743000000000002,0.017134200000000002,-0.0521358,0.1870592,-0.0905822,0.2233998,1,0,0,0,0,0,52.337153,4.943864,7.404614,3.62,247.899994,3.790092,2.5
183.0,-0.112463,7.292426000000002,6.458228,0.0258694,0.0535408,0.0159126,-0.6498970000000001,0.1196755,-0.13363674999999994,1,0,0,0,0,0,,,,,,,
183.5,-0.112463,7.292426000000002,6.458228,0.035031999999999994,-0.1239102,-0.06578799999999996,0.7715080000000001,0.24041600000000005,0.11952799999999995,1,1,0,0,0,0,52.33714000000001,4.943812,7.3549440000000015,3.8,248.0,3.790092,2.5
184.0,-0.4880164000000001,7.381738199999999,6.651927400000001,0.032146,0.043981000000000006,-0.1270945,-0.011383000000000056,0.30601,-0.109325,0,1,0,0,0,0,,,,,,,
184.5,-0.406122,7.4078198,6.6932034,0.050486600000000006,-0.1315154,-0.1578734,0.3638648,0.20915660000000005,0.08932939999999998,0,1,0,0,0,0,52.337128,4.943759,7.402747,3.86,250.800003,3.790092,2.5
185.0,-0.5057228,6.3462445999999995,7.4557366,0.0257776,-0.08848120000000001,-0.1879578,0.6147194,0.002935399999999957,0.170112,0,1,0,0,0,0,,,,,,,
185.5,-0.867398,5.906085,7.788338999999999,0.07647799999999999,-0.2668792,-0.18065799999999999,0.5450510000000001,0.02480499999999998,0.37463,0,1,0,0,0,0,52.33712,4.943703,7.869012,3.97,258.399994,3.790092,2.5
186.0,-0.008374799999999991,6.7882588,7.227102199999999,0.030695,-0.22967875,-0.16706700000000002,0.8382322,0.09549380000000003,0.12722560000000002,0,1,0,0,0,0,,,,,,,
186.5,-1.6728822000000003,7.0935826,6.6132832,-0.0201578,0.05720599999999999,0.3654088,-1.3972696000000002,-0.1921854,0.07312079999999999,0,1,0,0,0,0,52.337119,4.943645,7.680928,3.75,268.5,3.790092,2.5
187.0,1.4961125999999998,7.795038199999999,6.015017800000002,0.054701599999999996,-0.1884158,-0.4888915999999999,1.274745,0.2079256,0.16874479999999994,0,1,0,0,0,0,,,,,,,
187.5,1.7069800000000002,8.168797,5.188836,0.0234564,0.015912400000000004,0.0456608,-0.10169225000000008,-0.36168649999999997,0.5200252499999999,0,1,0,0,0,0,52.337125,4.9435910000000005,7.650327000000001,3.55,279.700012,3.790092,2.5
188.0,1.0797614,7.928318399999998,5.490092400000001,0.085175,,-0.47768225,0.6487398,-0.08248580000000003,0.230941,0,1,0,0,0,0,,,,,,,
188.5,-0.34444679999999994,7.431089999999999,6.552445799999999,0.0071470000000000014,-0.1930582,-0.027549199999999986,0.5363413999999999,0.1061068,0.10299420000000006,0,1,0,0,0,0,52.337135,4.943539,7.6243729999999985,3.53,286.899994,3.790092,2.5
189.0,-0.481735,7.3238918,6.5541806000000005,0.0028711999999999995,-0.1243686,-0.08686279999999999,-0.018352400000000026,0.0018284000000000405,0.05743959999999999,0,1,0,0,0,0,,,,,,,
189.5,0.960419,7.868498,6.093024,-0.014019,-0.06969779999999999,0.18899620000000003,-0.9448462,-0.2739208000000001,0.25256439999999997,1,1,0,0,0,0,52.337153,4.943492,7.720745,3.62,298.899994,3.790092,2.5
190.0,0.960419,7.868498,6.093024,0.0077882,0.011453399999999996,-0.09153559999999998,-0.30367649999999996,-0.03876925,0.34398425,1,0,0,0,0,0,,,,,,,
190.5,-0.16205399999999998,7.5650282,6.470910399999998,0.001489,0.003130500000000003,0.023899250000000004,-1.3055456,-0.1304568,0.051264199999999996,1,0,0,0,0,0,52.337175,4.943448,7.985156,3.59,306.899994,3.790092,2.5
191.0,-0.03415760000000003,7.251508800000001,6.661857400000001,-0.0103232,-0.041201399999999985,-0.05149440000000001,-0.35135679999999997,-0.11506439999999997,0.20718780000000006,1,0,0,0,0,0,,,,,,,
191.5,0.06322999999999998,6.4752171999999995,7.645247799999997,0.007574599999999998,-0.014660399999999997,-0.07852440000000001,-1.1192206,-0.2068472,0.20703979999999997,1,0,0,0,0,0,52.337199,4.943408,8.446532000000001,3.51,313.299988,3.790092,2.5
192.0,0.681954,6.364908,7.859525,-0.014018799999999998,-0.05928260000000001,0.0953532,-0.025140249999999864,-0.09691725,0.169318,1,0,0,0,0,0,,,,,,,
192.5,-0.10348980000000002,6.4523057999999995,7.5211798,-0.0045049999999999995,0.049593000000000005,-0.0046194999999999925,-0.30194580000000004,-0.08491140000000001,0.07998079999999996,1,0,0,0,0,0,52.337225,4.9433690000000015,8.497999,3.83,312.299988,3.790092,2.5
193.0,-0.5139784000000001,7.280282600000001,6.768996400000002,-0.0036346000000000017,0.036039999999999996,0.06410819999999999,-0.3129,0.1768796,0.0207928,1,0,0,0,0,0,,,,,,,
193.5,-0.09780660000000001,7.1726054,6.707022200000001,-0.017134200000000002,-0.0067806,-0.09962919999999999,0.3860848,-0.06807379999999999,0.20278560000000004,1,0,0,0,0,0,52.337249,4.943327,8.389427,3.62,309.100006,3.790092,2.5
194.0,-0.08674,7.521838000000002,6.185746,0.003145799999999998,-0.04660779999999999,0.028770599999999997,-0.30797800000000003,-0.151988,0.11983549999999997,1,0,0,0,0,0,,,,,,,
194.5,-0.08674,7.521838000000002,6.185746,-0.012583600000000006,0.05125,0.0847552,-0.046637799999999965,0.123576,-0.008089200000000029,1,0,0,0,0,0,52.337272,4.9432870000000015,8.023227,3.67,310.399994,3.790092,2.5
195.0,-0.3616152,7.0937022,6.9048485999999984,0.018822000000000002,-0.01401125,-0.11006700000000001,0.15724660000000001,0.1304138,0.029781,1,0,0,0,0,0,,,,,,,
195.5,-0.8257633999999999,6.8090758000000005,6.9075408,0.0052838,-0.0638946,0.03698680000000001,-0.3514804,-0.13272260000000002,0.007410599999999989,1,0,0,0,0,0,52.337299,4.943242,7.52861,4.53,310.299988,3.790092,2.5
196.0,-1.116252,7.589135999999999,6.569194999999999,0.0005803999999999976,0.1710372,0.12406320000000001,0.14490799999999998,0.23567220000000005,-0.013505200000000005,1,0,0,0,0,0,,,,,,,
196.5,-1.116252,7.589135999999999,6.569194999999999,0.011545,-0.06902559999999999,-0.15237579999999998,0.22313675,0.23008749999999994,-0.17979425000000002,1,0,0,0,0,0,,,,,,,
197.0,-0.5282156,7.3078598,6.7618176000000005,0.0008017500000000008,-0.048295250000000005,-0.009468,0.12172379999999995,-0.07184479999999997,0.24447080000000004,1,0,0,0,0,0,52.337325,4.9431949999999985,7.852107000000001,4.15,311.600006,3.790092,2.5
197.5,-0.57003,7.1390462,6.800880599999998,0.005222800000000004,-0.015576600000000006,0.01585160000000001,-0.0491354,0.14289100000000002,-0.041651399999999984,1,0,0,0,0,0,52.337352,4.943148000000001,7.158758,4.42,310.100006,3.790092,2.5
198.0,-0.35533400000000004,6.9132836,7.020003599999999,-0.010537,0.025289200000000005,0.06820100000000001,-0.14598260000000002,-0.0573828,0.1274448,1,0,0,0,0,0,,,,,,,
198.5,0.4737790000000001,7.081858,6.9942210000000005,0.0185394,0.0560758,-0.0424846,0.05215875,-0.029142999999999974,0.14786124999999994,1,0,0,0,0,0,,,,,,,
199.0,0.20703900000000006,6.9940414,6.9473814,0.01760025,-0.09723925,-0.003283249999999988,0.026329200000000032,-0.05265120000000001,0.1013574,1,0,0,0,0,0,52.337376,4.943098,7.605175999999998,4.25,306.299988,3.790092,2.5
199.5,-0.34002020000000005,7.0698936,6.8755966,-0.0154238,0.0373534,-0.0027180000000000012,0.15928699999999996,0.1158938,-0.010509600000000001,1,0,0,0,0,0,52.337401,4.943046,7.514116,4.46,305.5,3.827345,2.906005
200.0,-0.7143174,6.892226599999999,7.207840200000001,0.0050396,0.020677200000000003,0.023700799999999998,-0.0961294,-0.036804400000000015,0.3052324000000001,1,0,0,0,0,0,,,,,,,
200.5,-0.8446659999999999,6.608078999999999,7.620541999999999,0.003787000000000001,-0.06563539999999997,-0.035520800000000005,0.22650640000000005,0.04017240000000002,0.06822999999999994,1,0,0,0,0,0,52.337425,4.942993,7.455039,4.32,304.799988,4.71637,3.378248
201.0,-0.8446659999999999,6.608078999999999,7.620541999999999,-0.009498600000000001,-0.005497600000000001,-0.017225799999999996,0.0428265,0.10341175,-0.03239900000000001,1,0,0,0,0,0,,,,,,,
201.5,-0.5739183999999999,6.926982400000001,7.0201228,0.004810500000000002,-0.10705125,0.021723249999999996,-0.15160920000000006,-0.0350274,0.10385319999999996,1,0,0,0,0,0,,,,,,,
202.0,-0.3565902,7.03442,7.030471800000001,0.014018999999999998,0.1583622,0.1349362,-0.4352136,0.08644939999999998,0.12051040000000003,1,0,0,0,0,0,52.337448,4.942947,8.067899,3.79,307.0,4.816103,3.36614
202.5,-0.10678,7.415657,6.666703,-0.0009774000000000009,-0.017103799999999995,-0.0356736,0.04642879999999998,-0.07200879999999997,0.013429800000000016,1,0,0,0,0,0,52.33747,4.942906,7.923315,3.76,309.5,5.528491000000002,3.336075
203.0,-0.10678,7.415657,6.666703,0.0138358,0.06313099999999999,0.0178978,-0.2385425,-0.07393775,0.44732675,1,0,0,0,0,0,,,,,,,
203.5,-0.10408780000000002,7.157889999999999,6.8388664000000015,-0.00381775,-0.025808,-0.06234475,0.0988976,-0.07746120000000002,0.06610779999999998,1,0,0,0,0,0,52.337491,4.942868,5.804793,3.52,307.399994,4.722898000000002,3.221344
204.0,-0.3515056,7.008159000000001,6.9952374000000015,-0.002993199999999999,0.008948999999999999,-0.031795000000000004,0.2591662,0.031973600000000005,0.1403834,1,0,0,0,0,0,,,,,,,
204.5,-0.8958727999999999,6.878467800000001,6.9719076,0.002351800000000001,-0.0505172,0.039613599999999985,-0.19975220000000002,-0.010046999999999985,0.06947560000000001,1,0,0,0,0,0,,,,,,,
205.0,-0.416949,6.5772710000000005,7.392925,-0.0131636,0.028831999999999986,-0.033199599999999996,0.18369700000000005,0.210186,-0.029767750000000006,1,0,0,0,0,0,52.337516,4.942819,6.746511999999999,4.97,308.5,4.528257,2.975452
205.5,-0.416949,6.5772710000000005,7.392925,0.0156378,-0.0687202,-0.06313099999999999,0.052744000000000034,0.046942600000000015,-0.04648760000000003,1,0,0,0,0,0,,,,,,,
206.0,-0.245324,7.059724,6.947082000000001,0.004543249999999995,-0.11629,-0.036039999999999996,0.072281,0.1288436,0.026402799999999983,1,0,0,0,0,0,52.337542,4.9427650000000005,6.737545,4.24,306.5,3.790092,2.685587
206.5,-0.6863810000000001,6.7951976,7.2285378,0.0085824,0.10958599999999999,0.212697,-0.8559122000000002,-0.011552600000000024,0.09932280000000003,1,0,0,0,0,0,52.337566,4.942713,7.061463000000002,3.97,308.600006,3.790092,2.533666
207.0,-0.34337,7.186842999999999,7.020542000000002,-0.0160348,-0.041385000000000005,0.037048000000000005,-0.512312,-0.003997599999999968,0.0166358,1,0,0,0,0,0,,,,,,,
207.5,-0.34337,7.186842999999999,7.020542000000002,0.0106288,0.15988919999999998,0.3783588000000001,-1.3754695,0.185425,0.105126,1,0,1,0,0,0,,,,,,,
208.0,-0.3525224,7.038427999999999,7.241459199999999,0.0374525,0.19318075,0.31615175,-1.2362728,0.07012179999999997,0.3664980000000001,0,0,1,0,0,0,52.337586,4.942663,7.885560000000001,4.18,305.200012,3.790092,2.5
208.5,0.043609200000000035,6.753742,7.2479198,0.0405908,0.2568306,0.3501070000000001,-1.1819108,-0.1129052,0.365233,0,0,1,0,0,0,52.337602,4.942607,7.811087,4.28,297.0,3.790092,2.5
209.0,-1.434796,6.314659,7.42762,0.02168499999999999,,,,,,0,0,1,0,0,0,,,,,,,
209.5,-1.434796,6.314659,7.42762,,,0.3119902,,,,0,0,1,1,0,0,52.337607,4.94256,7.573823,2.71,281.700012,3.790092,2.617452
210.0,-1.4152948,5.8225152,7.865686399999999,0.0213795,0.08215900000000001,-0.055854499999999994,-0.2939502,,,0,0,1,1,0,0,,,,,,,
210.5,-0.054975400000000015,5.2556554,8.689355799999998,-0.0400716,0.2117808,0.2840438,-0.1523892,,,0,0,1,1,0,0,,,,,,,
211.0,0.6630512000000002,5.9654864000000005,7.8836330000000014,0.07550060000000001,-0.0646888,-0.1954406,0.6970691999999999,,0.9266131999999999,0,0,1,1,0,0,52.3376,4.9425370000000015,7.025461999999999,1.11,264.600006,3.790092,2.599483
211.5,0.40139600000000003,6.9409800000000015,6.8054869999999985,0.0103846,0.0785856,-0.046424400000000005,0.18592675000000006,-0.038290250000000005,0.14549725000000002,0,0,1,1,1,0,,,,,,,
212.0,0.40139600000000003,6.9409800000000015,6.8054869999999985,-0.0006412000000000007,0.0255336,-0.015148999999999998,0.1227368,0.152447,-0.0424046,0,0,0,0,1,0,52.337583,4.942545,6.80425,,,3.790092,2.673166
212.5,-0.4646262,6.8607010000000015,7.146164799999998,0.01618775,-0.013247500000000002,-0.024586500000000004,0.2541318,0.0962788,0.09188260000000001,0,0,0,0,1,0,52.337574,4.94255,6.737711999999998,,,3.790092,2.876752
213.0,-0.6991229999999999,6.867879599999998,7.0322064,0.0081548,-0.001007800000000001,-0.031153400000000005,0.0556934,0.0682054,0.0155976,0,0,0,0,1,0,,,,,,,
213.5,-0.7485345999999999,6.922375799999998,7.048777000000001,0.0015271999999999998,-0.020158199999999998,-0.0156376,0.025847200000000004,0.07514680000000001,0.0499876,0,0,0,0,1,0,,,,,,,
214.0,-0.7334,6.926622999999998,7.058827000000001,0.0014048,-0.004000999999999999,0.0138662,0.07065749999999997,0.06039025,0.089156,0,0,0,0,1,0,52.33757,4.942552,6.942846,,,3.790092,2.944666
214.5,-0.7674977999999999,6.8498734,7.1035724,0.0035505000000000003,0.031496750000000004,0.048371250000000005,-0.0852102,-0.010876600000000005,0.12640120000000002,1,0,0,0,1,0,52.337567,4.942553,7.300631,,,3.790092,3.04469
215.0,-0.474377,7.317610799999999,6.6475604000000015,-0.004856,0.0113006,0.0929098,0.12958179999999994,0.26810720000000005,-0.1234414,1,0,0,0,0,0,,,,,,,
215.5,-0.46169520000000003,7.541757799999999,6.4083380000000005,0.0111174,-0.007146799999999998,-0.0466076,0.492767,0.09925860000000003,0.09670200000000002,1,0,0,0,0,0,52.33756500000001,4.942552,7.075896000000001,,267.299988,3.790092,2.919673
216.0,-1.011566,7.258926,6.6604220000000005,-0.0115756,0.1046382,0.19724260000000002,0.15995724999999994,0.14305925,-0.07042849999999998,1,0,0,0,0,0,,,,,,,
216.5,-1.0600206,7.1750576,6.6991856,0.006451999999999999,-0.06818575,-0.0968575,0.09367500000000002,0.17924819999999994,0.11724260000000002,1,0,0,0,0,0,52.33756,4.942548,6.910175,,267.299988,3.790092,3.099991
217.0,0.3993622,7.543134200000001,6.621299200000001,0.11654980000000001,-0.10500439999999998,-0.16373759999999998,0.742599,-0.24796880000000002,0.6958552,1,0,0,0,0,0,,,,,,,
217.5,-0.3833,7.4270225,6.666054833333333,-0.008734999999999998,0.15152059999999998,0.2749116,-0.1971856,-0.4262971999999999,0.7464111999999999,1,0,0,0,0,0,52.337553,4.9425360000000005,8.057437,1.33,267.299988,4.104954,3.407403
218.0,-0.050847,7.403992,7.048657,0.0677122,0.014965799999999996,-0.0812122,-0.0027663999999999076,-0.349038,0.6408073999999999,1,0,0,0,0,0,,,,,,,
218.5,-0.050847,7.403992,7.048657,,0.0652386,0.30099499999999996,-0.81062575,,0.632659,1,0,0,0,0,0,52.337544,4.94252,8.037761999999999,1.43,267.299988,4.467539,3.571531
219.0,0.3779466000000001,7.1507114000000005,6.6116682,-0.02722075,0.31943475,0.25235625,-0.26735559999999997,-0.4482508,0.1878228,1,0,0,0,0,0,,,,,,,
219.5,-0.4426722,6.9933831999999985,7.0393254,0.002046199999999998,0.035215400000000015,-0.15072660000000002,-0.03404980000000011,-0.3374320000000001,0.5580347999999999,1,0,0,0,0,0,52.337531,4.942499,8.007213,2.33,231.5,4.207922,3.745507
220.0,1.4463420000000002,7.5670622,6.674838199999999,0.0377808,0.011087,-0.3798858,1.5157828000000002,-0.04229599999999999,0.5313022000000001,1,0,0,0,0,0,,,,,,,
220.5,1.44706,7.551449000000002,6.557828999999999,,-0.274698,-0.3447315999999999,,-0.4640235,,1,0,1,0,0,0,52.337515,4.942475,8.412144999999999,2.12,227.199997,4.355949,3.82549
221.0,0.4393824,7.0369922,6.701099599999999,0.032680499999999994,,,,0.12900779999999995,0.4241066,0,0,1,0,0,0,,,,,,,
221.5,-0.8616554000000001,6.7286174,7.330651400000002,,,,,0.23871480000000006,0.7805446,0,0,1,0,0,0,52.337494,4.942444999999998,8.086414999999999,3.07,229.899994,4.404083,3.657577
222.0,-1.5710078000000005,6.683811800000001,7.6276606,,,-0.3571014,1.3081584,0.02298480000000001,1.067873,0,0,1,0,0,0,,,,,,,
222.5,-2.066202,6.373582,7.465008,0.08499939999999999,-0.2842578000000001,0.07540919999999998,0.49178075,0.07737575000000001,0.197208,0,0,1,0,0,0,52.337481,4.942401,8.587348,3.27,253.399994,4.0103019999999985,3.559283
223.0,-2.066202,6.373582,7.465008,-0.014263399999999999,-0.026968799999999998,0.08393060000000001,-0.4991894,-0.29776820000000004,0.32200840000000003,0,0,1,0,0,0,,,,,,,
223.5,-0.6970890000000001,7.232724799999999,6.646124799999999,0.042377500000000005,-0.26159525,-0.1955475,-0.34197920000000004,-0.25232259999999995,0.3308178,0,0,1,0,0,0,,,,,,,
224.0,-0.8469393999999999,7.0864037999999985,6.868836399999998,-0.0161262,0.1054934,0.3413414,-1.1775209999999998,-0.3270538,0.47837219999999997,0,0,1,0,0,0,52.337485,4.942349,8.381207,3.64,280.600006,3.790092,3.095242
224.5,0.215354,7.562814999999999,6.4211399999999985,0.024830800000000004,-0.14312120000000003,-0.17189259999999998,-0.4351184,-0.14911000000000002,0.2876634,1,0,1,0,0,0,52.33750300000001,4.942296,8.104774,3.95,302.5,3.790092,2.787794
225.0,0.215354,7.562814999999999,6.4211399999999985,-0.002565399999999998,0.26510759999999994,0.27866860000000004,-1.3330035,-0.09068099999999997,0.34558324999999995,1,0,0,0,0,0,,,,,,,
225.5,-0.4438088000000001,7.1916281999999985,6.5849884,0.0011455000000000016,-0.0810515,-0.31168475,-0.09130360000000001,-0.2626946,0.241062,1,0,0,0,0,0,52.337525,4.942245,7.57017,4.03,304.5,3.790092,2.5
226.0,-0.32099720000000004,7.0414788,6.941638,0.011667,-0.0314278,0.039063400000000005,-0.1254474,-0.098224,0.2319276,1,0,0,0,0,0,,,,,,,
226.5,-0.6059222,6.813981399999999,7.021618199999999,0.0134998,-0.0222348,-0.0585194,-0.321924,-0.02713360000000001,0.08668299999999997,1,0,0,0,0,0,52.337548,4.942193,7.257061999999999,4.07,303.299988,3.790092,2.5
227.0,-0.28594200000000003,6.927222,6.772884,-0.015851399999999998,0.023670600000000003,0.2365812,-0.7223189999999999,-0.14123875,0.1663155,1,0,0,0,0,0,,,,,,,
227.5,-0.23012940000000004,7.0371722000000005,6.833661799999999,0.0161875,0.123735,-0.06417700000000001,0.16796360000000005,0.14214960000000004,0.14787999999999998,1,0,0,0,0,0,52.33757,4.942139,7.3055850000000015,4.13,300.5,3.790092,2.5
228.0,-0.8146962,6.969036200000001,6.880621400000001,0.0025044000000000025,-0.024128600000000004,-0.02556400000000001,-0.21086339999999995,-0.017841399999999997,0.0362454,1,0,0,0,0,0,,,,,,,
228.5,0.17724840000000006,7.050990399999999,6.9348788,0.013622,0.0037566000000000014,-0.15710980000000002,0.9460356,0.06472439999999999,0.10786760000000002,1,0,0,0,0,0,52.337591,4.942082,7.4030559999999985,4.39,300.0,3.790092,2.5
229.0,0.796511,6.869494999999999,7.339385000000003,-0.0007331999999999997,-0.0689038,0.017775599999999996,-0.0003905999999999743,0.0168792,-0.07115760000000003,1,0,0,0,0,0,,,,,,,
229.5,0.796511,6.869494999999999,7.339385000000003,0.0142328,-0.0596186,-0.0762032,0.5389617499999999,0.16197474999999995,0.17461749999999998,1,0,0,0,0,0,52.337614,4.942024,7.517800999999999,4.51,301.100006,3.790092,2.5
230.0,-0.04348940000000003,7.341778,7.038128800000001,-0.028595250000000006,-0.1080055,0.02531175,-0.12030939999999996,-0.0228384,0.0506616,1,0,0,0,0,0,,,,,,,
230.5,0.7372883999999998,7.474340400000001,7.398069199999999,0.004734199999999999,0.0969414,0.08814519999999999,0.29544360000000003,0.08291380000000001,0.09597519999999997,1,0,0,0,0,0,52.337638,4.941966000000002,7.149272,4.58,303.399994,3.790092,2.5
231.0,-0.6349952,6.627341,7.913303799999999,0.0035736000000000023,-0.084969,-0.037200600000000014,-0.33973400000000004,-0.0015337999999999851,-0.06913899999999999,1,0,0,0,0,0,,,,,,,
231.5,-0.5264211999999999,6.5834924,7.4867232,0.009926400000000002,0.0839,0.030450799999999993,0.28020549999999994,0.18496300000000002,0.09628075,1,0,0,0,0,0,52.337664,4.941907,7.084212,4.87,305.600006,3.790092,2.5
232.0,-1.5157336,7.3280792,6.4588861999999985,0.0057267500000000035,-0.07704325,-0.08109,-0.03198360000000002,-0.140037,0.17393599999999998,1,0,0,0,0,0,,,,,,,
232.5,0.19136600000000006,6.5209802,8.262476600000001,0.0014966000000000007,0.005589200000000001,0.01038420000000001,0.3210912,0.13491599999999998,0.033549399999999965,1,0,0,0,0,0,52.337692,4.941847,6.563282000000001,4.9,305.700012,3.790092,2.5
233.0,-0.270688,7.244569999999999,7.2650284,0.009009999999999999,-0.00015259999999999943,-0.0221432,0.16779859999999994,0.110954,0.003067399999999998,1,0,0,0,0,0,,,,,,,
233.5,-1.8122638,7.351708599999999,5.898666599999999,-0.0124004,-0.008704600000000003,0.046332600000000015,-0.17072450000000006,-0.1046245,0.11905325,1,0,0,0,0,0,52.337719,4.941788,6.093621,4.99,306.200012,3.790092,2.5
234.0,-1.6522438000000002,7.488697800000001,6.171268799999999,0.01015525,-0.0179055,-0.062421,0.1845416,0.07200619999999999,0.09284280000000003,1,0,0,0,0,0,,,,,,,
234.5,-0.3357728,6.8667432,7.128756999999999,0.0059558,-0.060534999999999985,-0.059069,0.27450040000000003,-0.057955799999999974,0.2211396,1,0,0,0,0,0,52.337751,4.941722,5.836183,5.04,306.700012,3.790092,2.5
235.0,-0.17838479999999995,7.150651399999999,6.8783482000000005,0.006780199999999999,0.041110200000000006,-0.009865200000000018,0.191484,0.221408,-0.03984720000000001,1,0,0,0,0,0,,,,,,,
235.5,0.778266,7.5284179999999985,6.563511999999999,-0.014477200000000003,-0.044989,0.16975420000000002,-0.5536565999999998,-0.22048920000000002,0.11506759999999998,1,0,0,0,0,0,52.337778,4.941665,5.307563,5.12,308.700012,3.790092,2.5
236.0,0.778266,7.5284179999999985,6.563511999999999,0.011759,0.08432739999999998,-0.0125834,0.08673049999999999,0.17481149999999998,0.005879499999999991,1,0,0,0,0,0,,,,,,,
236.5,-0.2119442,7.037111599999999,6.906164800000001,-0.017523749999999998,-0.0029017500000000016,-0.02722075,0.0206408,0.02446799999999999,0.12275819999999998,1,0,0,0,0,0,52.337805,4.941603,5.223216000000002,5.23,304.700012,3.790092,2.5
237.0,-0.4501496,6.908617200000001,7.059903599999999,0.010476000000000004,0.015943000000000002,0.07348500000000001,-0.088633,0.01817480000000001,0.1006896,1,0,0,0,0,0,,,,,,,
237.5,-0.41007,6.984649,6.969096,0.012217,0.031642,-0.0058336,0.05638360000000001,0.0295084,0.1198014,1,0,0,0,0,0,52.337833,4.941539,5.201001,5.32,304.0,3.790092,2.5
238.0,-0.41007,6.984649,6.969096,-0.0005194,0.017073400000000002,-0.052594,0.312039,0.014672999999999997,0.09496775,1,0,0,0,0,0,,,,,,,
238.5,-0.4244268,7.067201600000001,6.9145994,0.014545749999999996,-0.05719025,-0.08486975,0.2073504,0.260326,-0.13524160000000002,1,0,0,0,0,0,52.337858,4.941475,4.455762,5.22,301.299988,3.790092,2.5
239.0,1.7687148,7.076772999999999,7.590093199999997,-0.002871000000000001,-0.005864200000000003,0.007941,-0.07148919999999999,0.2579906,-0.15779279999999998,1,0,0,0,0,0,,,,,,,
239.5,-0.4096513999999999,7.334001599999999,6.740042999999999,-0.0067498,-0.023365000000000004,-0.022143400000000004,-0.1009712,0.1369206,-0.025543000000000027,1,0,0,0,0,0,52.337888,4.941415,4.664693,5.34,309.100006,3.790092,2.5
240.0,0.8245665999999999,6.716473599999999,8.1190864,0.0081548,-0.035948400000000005,0.0495094,-0.25555475,0.02660425,0.07783875000000001,1,0,0,0,0,0,,,,,,,
240.5,-0.8136793999999999,7.4380294000000005,5.9782878,0.0011607999999999994,0.040712800000000014,-0.0320084,-0.0189418,0.1469154,0.006070400000000004,1,0,0,0,0,0,52.337916,4.941351,4.386009,5.26,305.799988,3.790092,2.5
241.0,-0.5463412,6.4777896,7.219923600000001,0.005345,-0.01920375,-0.0037035000000000045,0.197924,-0.1939318,0.2630888,1,0,0,0,0,0,,,,,,,
241.5,0.03565339999999999,7.3953771999999995,7.155915400000001,-0.004459199999999997,-0.0458138,-0.012094600000000002,0.16142879999999998,-0.12152819999999998,0.25979800000000003,1,0,0,0,0,0,52.337945,4.941287,4.214567,5.32,309.100006,3.790092,2.5
242.0,-1.8954741999999998,5.169514199999999,8.3578902,0.0137136,-0.011941800000000002,0.0792268,-0.2283766,-0.1411562,0.3398366,1,0,0,0,0,0,,,,,,,
242.5,-1.211067,,10.572986,-0.013224799999999998,0.08496879999999997,0.0724466,-0.29366149999999996,0.15547750000000002,-0.10588525000000004,1,0,0,0,0,0,,,,,,,
243.0,-0.4972284000000001,5.7960744,8.2986678,0.014736749999999996,0.022601250000000003,-0.14438900000000002,0.32850640000000003,0.2193438,-0.23046460000000002,1,0,0,0,0,0,52.337976,4.941222,4.170934,5.31,306.700012,3.790092,2.5
243.5,-0.3878766000000001,6.8714092,7.184629599999999,-0.013072399999999998,-0.033169,-0.029870400000000002,0.15457899999999994,0.3506328,-0.11062759999999998,1,0,0,0,0,0,52.338005,4.941154,4.084448,5.35,304.299988,3.790092,2.5
244.0,-1.0673781999999998,7.230452199999999,6.5779886,-0.004428599999999995,-0.0256558,0.06520780000000001,-0.1565906,0.3383274000000001,-0.3937532,1,0,0,0,0,0,,,,,,,
244.5,-1.271486,7.491928,6.403492,0.018813999999999997,-0.008276799999999997,-0.06447499999999999,0.12208925,0.4167857500000001,-0.11242375,1,0,0,0,0,0,52.338035,4.941085,3.841592,5.46,307.0,3.790092,2.5
245.0,-0.996431,7.4373716,6.4800624000000004,-0.008208249999999999,0.01695125,0.09113075,-0.17727500000000002,0.21960619999999995,-0.1719446,1,0,0,0,0,0,,,,,,,
245.5,-0.3939782,6.8632734,7.1478398,-0.004398000000000001,0.0543958,-0.0033292,-0.10619960000000002,0.05777800000000001,0.10214560000000003,1,0,0,0,0,0,,,,,,,
246.0,-0.427418,6.884689,7.0368728,0.0217462,-0.0787078,-0.1059516,-0.06669800000000001,0.0187192,0.0657958,1,0,0,0,0,0,52.338065,4.941024,3.831163,5.63,306.899994,3.790092,2.5
246.5,-0.9825530000000001,6.672984,7.175775999999999,0.0030541999999999987,0.010445400000000002,0.055770200000000006,-0.33346425,-0.03784449999999999,0.20419975,1,0,0,0,0,0,52.338096,4.940961,3.793025,5.6,306.700012,3.790092,2.5
247.0,-0.8281560000000001,6.8532832,6.961259799999999,0.0019852000000000003,-0.0107814,-0.039338599999999994,-0.23096900000000006,0.054134200000000014,0.1091098,1,0,0,0,0,0,,,,,,,
247.5,0.017767000000000092,7.794141199999999,6.1463838,0.006070250000000003,0.03168775,0.0387125,-0.20460680000000006,-0.24155300000000002,0.32857780000000003,1,0,0,0,0,0,52.33812800000001,4.9408970000000005,3.619021,5.6,308.600006,3.790092,2.5
248.0,-1.3911872000000003,6.4993848,6.540302199999998,0.009926400000000002,-0.050211599999999995,-0.018081,-0.1835916,-0.08243819999999999,0.2132002,1,0,0,0,0,0,,,,,,,
248.5,0.4531406,6.237191200000001,8.008059399999999,0.00039699999999999946,-0.0102926,-0.0221432,-0.16786079999999998,-0.07548980000000002,0.252106,1,0,0,0,0,0,52.33816,4.940835,3.479201,5.63,309.100006,3.790092,2.5
249.0,-0.273081,7.3150384000000015,7.389395200000001,-3.0600000000000764e-05,0.0115144,0.045447,0.30161075,0.3807105,-0.21596075000000006,1,0,0,0,0,0,,,,,,,
249.5,0.1427918,7.891828200000001,5.2043294,-0.0027487499999999995,0.04462975,-0.0036650000000000016,0.3127698,0.15067560000000002,-0.03430719999999997,1,0,0,0,0,0,52.338191,4.94077,2.922078,5.57,309.0,3.790092,2.5
250.0,-1.464168,6.3072412,6.924410000000001,0.0016187999999999994,-0.025930400000000003,-0.042423400000000014,0.6593608,0.234577,-0.024781600000000004,1,0,0,0,0,0,,,,,,,
250.5,-0.4558923999999999,6.353362799999999,7.9338820000000005,0.001710399999999999,0.045691400000000014,0.0059557999999999955,0.41872159999999997,0.0902162,0.023776399999999986,1,0,0,0,0,0,52.338224,4.940706,2.674591,5.6,308.399994,3.790092,2.5
251.0,-0.9384052000000004,7.1484380000000005,6.005506400000001,0.017470199999999998,-0.07345439999999999,-0.011850399999999994,0.510908,-0.01774925,0.07817249999999999,1,0,0,0,0,0,,,,,,,
251.5,0.16343020000000003,7.4749387999999986,6.6694548,-0.01080425,0.01252225,0.0385215,-0.04389620000000002,0.05887820000000001,0.1287658,1,0,0,0,0,0,52.338261,4.940639,2.465987,5.63,310.799988,3.790092,2.5
252.0,-0.8042876,6.1046886,6.9599432000000006,-0.00015259999999999962,0.032832999999999994,0.0005498000000000002,0.15957020000000002,-0.0701912,0.16557720000000006,1,0,0,0,0,0,,,,,,,
252.5,-0.06179439999999997,6.6769322,7.2034728,0.0062916000000000005,-0.0379028,-0.017867599999999997,-0.0272402,0.04400880000000002,0.0440856,1,0,0,0,0,0,52.338292,4.940575,2.131339,5.47,308.399994,3.790092,2.5
253.0,-0.4793422,7.444789,6.3379889999999985,0.0063834,0.0014659999999999949,-0.053235000000000005,0.22663420000000006,0.1034204,0.07745419999999999,1,0,0,0,0,0,,,,,,,
253.5,-0.6491726,6.3704714000000005,7.5359555999999985,0.0056504,-0.0192418,0.0363762,0.058411000000000005,0.029721500000000005,0.14358800000000002,1,0,0,0,0,0,52.338322,4.94051,2.500608,5.48,312.5,3.790092,2.5
254.0,-0.208355,7.4042906,5.988636799999999,0.01034625,0.022448750000000003,-0.06364275,0.181212,0.157569,0.0942508,1,0,0,0,0,0,,,,,,,
254.5,-0.9881158,7.0890960000000005,6.961259399999999,0.008826800000000001,-0.063864,-0.0407742,0.297379,-0.11025780000000003,0.25312399999999996,1,0,0,0,0,0,52.338357,4.940452,2.304396,5.49,313.200012,3.790092,2.5
255.0,0.09355919999999997,7.2188468,7.4362347999999985,0.0087962,-0.008032599999999999,-0.036345399999999986,0.025893199999999984,0.096489,0.005412000000000003,1,0,0,0,0,0,,,,,,,
255.5,-0.6969095999999999,6.770790799999999,6.404270200000001,0.0053144,-0.0239758,0.0327414,-0.10435075,-0.12459925,0.08359249999999999,1,0,0,0,0,0,52.338391,4.940392,2.155545,5.3,315.399994,3.790092,2.5
256.0,-0.5976074,7.291947200000001,6.6834526,0.01286625,-0.06768950000000001,-0.029282500000000006,-0.07033619999999996,0.08734839999999999,0.1984636,1,0,0,0,0,0,,,,,,,
256.5,0.6180062,7.2732832,7.476853,0.0025960000000000002,0.04166,0.09556679999999998,-0.18596960000000004,0.124701,0.10766880000000004,1,0,0,0,0,0,52.338424,4.940342,2.3368990000000003,5.11,314.0,3.790092,2.5
257.0,0.1475174,6.9108904,6.712226599999998,-0.0029934,0.006872200000000004,-0.045324800000000005,-0.2520926,0.03820939999999999,0.009266399999999984,1,0,0,0,0,0,,,,,,,
257.5,-1.5102298,6.6062842,7.424510000000001,-0.0049478000000000005,0.027549399999999998,0.074554,0.007322999999999995,0.02988049999999998,-0.0503965,1,0,0,0,0,0,52.338455,4.940283999999999,2.315425,5.06,314.200012,3.790092,2.5
258.0,-2.2577480000000003,7.0028945999999985,6.071668,0.008124200000000003,-0.0499978,-0.06649079999999999,-0.1167714,0.1261868,0.006980999999999976,1,0,0,0,0,0,,,,,,,
258.5,-0.4718646000000001,7.7353374000000015,5.8683378,-0.014163999999999998,0.06268825,0.14771050000000002,-0.10527259999999998,-0.07161200000000001,0.2714364,1,0,0,0,0,0,,,,,,,
259.0,1.174218,6.7467429999999995,7.5582088,0.0081852,0.006597199999999999,-0.08655700000000001,0.12080639999999998,0.1179128,-0.1712606,1,0,0,0,0,0,52.338485,4.940228,2.19953,4.88,313.799988,3.790092,2.5
259.5,0.2278564,7.180262400000001,6.991289400000001,0.0025657999999999983,0.005742200000000001,-0.007269199999999998,0.3007,0.150142,0.032151800000000015,1,0,0,0,0,0,52.338516,4.9401720000000005,2.324481,4.83,315.600006,3.790092,2.5
260.0,-0.18089760000000008,6.924649400000001,6.600721000000001,0.004948000000000001,-0.021624,-0.061695599999999975,0.21815075000000006,0.13512249999999998,-0.0989355,1,0,0,0,0,0,,,,,,,
260.5,-0.6655634000000001,7.454779199999999,6.798667200000001,0.00855175,0.0010310000000000009,-0.00794124999999999,0.17407419999999998,0.144612,0.07874919999999999,1,0,0,0,0,0,52.338546,4.940112999999998,2.100063,4.97,314.0,3.790092,2.5
261.0,-2.2295724,6.813083999999999,6.128317999999998,-0.0008855999999999996,-0.0489596,0.010354000000000002,-0.008505799999999989,0.12523279999999998,0.04082159999999999,1,0,0,0,0,0,,,,,,,
261.5,-0.4210772,7.2512098,6.924769200000003,-0.0006719999999999996,0.007208000000000002,0.016798199999999996,0.0797322,0.0995604,0.04815379999999999,1,0,0,0,0,0,,,,,,,
262.0,0.8163114,7.368099000000001,6.711568400000001,-0.004245199999999999,-0.00030540000000000016,-0.0169512,0.08780275000000001,0.0426325,0.005937999999999992,1,0,0,0,0,0,52.33858,4.940054,2.642619,5.01,315.700012,3.790092,2.5
262.5,-0.012502400000000023,6.527440799999999,7.473981599999999,0.006490250000000002,-0.012636999999999995,0.0144695,-0.039502799999999984,0.0552376,0.050735400000000014,1,0,0,0,0,0,52.33860900000001,4.94001,2.372372,4.78,315.399994,3.790092,2.5
263.0,-0.9105288,7.360143000000001,6.1835324,-0.003085,-0.0151798,-0.0403466,0.12221880000000002,0.06566720000000001,0.04955680000000001,1,0,0,0,0,0,,,,,,,
263.5,-0.7357931999999999,6.233422599999999,7.423014599999999,0.0028710000000000003,-0.005192199999999999,-0.0018632000000000047,-0.060032,0.0995092,-0.0408466,1,0,0,0,0,0,52.33864000000001,4.939961,2.359387,5.05,316.100006,3.790092,2.5
264.0,1.1687144000000005,7.0096544000000005,8.3857068,0.007513600000000001,-0.0203108,0.001680000000000001,0.07910780000000002,0.1526718,0.033928000000000035,1,0,0,0,0,0,,,,,,,
264.5,-1.0670794,7.243911800000001,6.0666426,-0.013316399999999999,0.0071470000000000014,0.07879939999999999,-0.2149335,0.10106225,-0.010037250000000013,1,0,0,0,0,0,52.338673,4.939913,2.304475,5.02,317.899994,3.790092,2.5
265.0,-1.5264415999999998,7.4529844,6.5325852,0.0228305,0.06593325,-0.01878350000000001,0.16496239999999995,0.07998840000000003,0.14620680000000005,1,0,0,0,0,0,,,,,,,
265.5,-1.2317653999999998,7.1874411999999985,6.5607608,-0.008735200000000002,-0.0488676,-0.0002446000000000004,-0.1929026,-0.06048619999999999,-0.031954599999999986,1,0,0,0,0,0,52.338704,4.93986,1.940231,5.0,314.399994,3.790092,2.5
266.0,-0.7274780000000001,7.045666200000001,6.3202821999999985,0.0052534,0.08533539999999999,0.04676059999999999,0.168696,0.2046466,0.020309600000000014,1,0,0,0,0,0,,,,,,,
266.5,-0.9752546,7.0408208000000005,6.5873810000000015,0.004000999999999999,-0.0343296,-0.1144116,0.4072960000000001,-0.03049850000000002,0.19088675,1,0,0,0,0,0,52.338736,4.9398050000000016,1.98596,4.98,313.899994,3.790092,2.5
267.0,-0.33553340000000004,7.188218600000001,6.819425,-0.0080935,-0.004428750000000009,0.15252075,-0.25551159999999995,-0.07498760000000003,0.17013079999999994,1,0,0,0,0,0,,,,,,,
267.5,-1.0140782,6.888457799999999,7.5515088000000015,0.012827799999999999,-0.015057400000000004,-0.0735156,0.3578758,0.08659939999999999,0.04347379999999999,1,0,0,0,0,0,,,,,,,
268.0,-1.300918,6.696194599999999,6.5046492,-0.0060474000000000005,6.1000000000005494e-05,0.11722160000000001,-0.3957718,0.000895200000000007,0.10278800000000002,1,0,0,0,0,0,52.338766,4.939751,1.712352,5.04,315.399994,3.790092,2.5
268.5,1.007857,6.938049,8.118547999999999,0.0215322,0.0647802,-0.0515554,0.054096000000000005,0.102726,0.03682424999999999,1,0,0,0,0,0,52.338799,4.939696,1.554103,5.17,314.200012,3.790092,2.5
269.0,0.5787041999999999,6.557171800000001,8.1715492,0.019425,-0.0067496000000000006,-0.07406520000000001,0.38776259999999996,-0.0833202,0.27541279999999996,1,0,0,0,0,0,,,,,,,
269.5,0.8845070000000002,6.8383280000000015,7.3924460000000005,0.01477475,-0.11102175,-0.08948924999999999,0.2762112,0.05780460000000001,0.15074220000000002,1,0,0,0,0,0,,,,,,,
270.0,1.7561522,7.213403200000001,6.868477999999999,-0.005558599999999998,0.0467298,0.11487,-0.0960184,0.031553999999999985,0.15892520000000002,1,0,0,0,0,0,52.33883400000001,4.939642,1.766402,5.23,319.5,3.790092,2.5
270.5,0.003828400000000043,6.6231534,7.667441200000002,-0.005680999999999999,-0.007238600000000001,0.0029013999999999984,-0.13015559999999998,-0.1360648,0.13298079999999998,1,0,0,0,0,0,52.338866,4.939586,1.6894490000000002,4.88,314.600006,3.790092,2.5
271.0,-0.5309672000000001,7.753702400000001,6.0356558,0.023701,-0.0368952,-0.170518,0.831161,0.05349200000000001,0.148036,1,0,0,0,0,0,,,,,,,
271.5,-1.4438292,6.4164736000000016,7.2009006,-0.034818249999999995,-0.025999249999999998,0.1739005,-0.333492,0.010986999999999995,-0.13778120000000002,1,0,0,0,0,0,52.338899,4.939539,1.7231,4.89,317.799988,3.790092,2.5
272.0,1.2455235999999998,7.1810404000000005,7.0989664,-0.002932199999999997,-0.007177600000000002,-0.0440118,0.2591722,0.16802999999999998,-0.07637459999999999,1,0,0,0,0,0,,,,,,,
272.5,-1.9321444,7.287461,6.308318000000001,0.00039699999999999946,0.010262199999999994,-0.038941599999999986,-0.021974199999999992,0.08076380000000002,0.02814120000000001,1,0,0,0,0,0,52.33893,4.939485,1.7564990000000005,5.04,315.700012,3.790092,2.5
273.0,-0.9524034,7.3826356,6.416713,-0.0035734000000000017,-0.0175924,0.0926654,-0.29438275,-0.013016250000000007,0.0645415,1,0,0,0,0,0,,,,,,,
273.5,-0.07142600000000003,7.028557599999999,7.053862,0.005955749999999999,0.03145875,-0.030122500000000007,0.08484900000000001,0.0255236,0.13133279999999994,1,0,0,0,0,0,52.338964,4.939438,1.864981,5.02,318.5,3.790092,2.5
274.0,-0.290369,6.5423958,8.618408800000001,0.0108732,-0.03097,0.002199200000000004,-0.2547592,0.15451420000000002,-0.1211918,1,0,0,0,0,0,,,,,,,
274.5,1.3211372,6.6502523999999985,7.3906512000000015,-0.0078796,0.061725999999999996,0.03603980000000001,0.1612556,0.018060200000000002,0.17616400000000002,1,0,0,0,0,0,52.338996,4.939386,1.5698299999999998,5.02,315.5,3.790092,2.5
275.0,0.8754144,7.4187074000000015,7.41781,0.0031763999999999985,-0.0196388,0.010262200000000004,-0.2416535000000001,0.13616124999999998,-0.09639375,1,0,0,0,0,0,,,,,,,
275.5,0.192981,6.633921400000001,8.208637600000001,-0.0044286,0.011453400000000008,-0.050730800000000006,0.0978686,-0.032866800000000015,0.22143479999999996,1,0,0,0,0,0,,,,,,,
276.0,0.574098,6.756134800000001,8.380442400000002,0.002367,0.0208455,0.1039205,-0.3940628000000001,-0.0306392,-0.01541460000000001,1,0,0,0,0,0,52.339027,4.939333,1.569294,5.17,314.700012,3.790092,2.5
276.5,0.2322233999999999,7.1616584,6.6880586,0.0027792000000000003,0.013866399999999996,-0.055678599999999995,0.2321318,0.030564200000000017,0.1263662,1,0,0,0,0,0,52.339062,4.93928,1.486793,5.22,316.600006,3.790092,2.5
277.0,-0.5312066000000001,6.6205214,7.0870619999999995,0.0029932000000000005,-0.0232428,-0.036345400000000014,0.04511940000000001,-0.033664999999999994,0.132063,1,0,0,0,0,0,,,,,,,
277.5,-2.036352,6.6480988,6.197769600000001,0.0057113999999999976,0.006810800000000007,0.0532354,-0.09405225,0.030995499999999995,0.17106824999999998,1,0,0,0,0,0,52.339095,4.939225,1.371941,5.3,316.399994,3.790092,2.5
278.0,0.4957328,6.581697999999999,8.302676,0.01103325,-0.06364275,-0.051044000000000006,-0.011241199999999974,-0.033342399999999994,0.07971159999999998,1,0,0,0,0,0,,,,,,,
278.5,-1.9977078,7.052844599999999,6.623931399999999,-0.0060777999999999995,0.037781,0.06557439999999999,-0.0721958,0.17906839999999996,0.021828199999999985,1,0,0,0,0,0,52.339128,4.939174,1.311229,5.28,317.700012,3.790092,2.5
279.0,-0.30675979999999997,7.658886999999999,6.1709698,0.001740799999999999,-0.0110868,0.0030542000000000013,-0.2515101999999999,-0.052408600000000014,0.1783492,1,0,0,0,0,0,,,,,,,
279.5,0.06388840000000004,6.7214388,7.6630742,0.0103844,0.039124599999999995,-0.0003971999999999948,0.07511675,0.1504345,0.06420524999999996,1,0,0,0,0,0,52.33916,4.939124,1.312528,5.01,316.5,3.790092,2.5
280.0,-1.4924036,7.6415988,5.425007600000002,0.00400875,-0.07753925,-0.04814225,0.05081499999999998,0.0948482,0.01601579999999999,1,0,0,0,0,0,,,,,,,
280.5,0.0666402,6.6914088000000005,7.673961599999999,0.010415,0.0111176,0.14339639999999998,-0.33314499999999997,0.12495899999999999,0.13352999999999998,1,0,0,0,0,0,52.3392,4.939078,1.291501,5.26,319.899994,3.790092,2.5
281.0,0.5769694000000001,6.8931835999999995,5.8403415999999995,0.0118808,0.0866182,0.12418519999999998,-0.3255123999999999,-0.10070899999999998,0.34762540000000003,1,0,0,0,0,0,,,,,,,
281.5,0.8281558000000001,7.033821799999999,7.435935599999999,-0.009529,0.0733932,0.10610399999999999,-0.6059329999999999,0.0018286000000000133,0.003936000000000028,1,0,0,0,0,0,,,,,,,
282.0,0.4476974,6.6496542000000005,7.769554999999999,0.0048562,0.08909199999999999,0.2225618,-0.7793632500000001,-0.011505500000000002,-0.05189,1,0,0,0,0,0,52.339223,4.939011,1.873222,5.09,305.600006,3.790092,2.5
282.5,0.024765599999999964,7.3816186,7.1112894,0.051464,0.29698650000000004,0.18317775,-0.17735520000000002,0.1932694,0.2863454,1,0,0,0,0,0,52.339251,4.938956,1.7573849999999998,4.81,293.5,3.790092,2.5
283.0,-1.6106090000000002,7.1821168,7.1569924,0.026816200000000002,0.09804099999999998,-0.1280948,0.3798542,-0.14308820000000005,0.24573899999999999,1,0,0,0,0,0,,,,,,,
283.5,-0.1526024,7.0804817999999985,7.2567732,-0.0048868,0.0553734,0.0981632,0.3465096,-0.035424199999999996,0.1937296,1,0,0,0,0,0,52.33926500000001,4.93889,2.028118,4.95,286.899994,3.790092,2.5
284.0,-0.7497312,7.1401228,6.3786074,0.0271522,0.054671,-0.2005718,1.21718875,0.09099874999999996,0.054039,1,0,0,0,0,0,,,,,,,
284.5,0.038345000000000073,7.3527254,10.0293962,0.05184575,0.013095,-0.07956275,1.1059608,-0.015351799999999994,0.3861034,1,0,0,0,0,0,,,,,,,
285.0,-0.9688538000000001,6.2423358,7.839963800000001,0.068079,-0.2263802,-0.3452508,,0.048944800000000004,0.677293,1,0,0,0,0,0,52.339281,4.938828,1.764984,4.76,292.200012,3.790092,2.5
285.5,-1.7444273999999997,6.9028148,6.5487968,-0.005741800000000001,-0.1024086,-0.025441800000000004,0.8101844,-0.051457600000000006,0.27289040000000003,1,0,0,0,0,0,52.339306,4.938774,2.0677220000000003,4.63,306.0,3.790092,2.5
286.0,-2.0678174,6.9733432,6.321598000000001,0.020615999999999995,-0.1714648,-0.2061914,0.3687837499999999,-0.11065699999999999,-0.023809750000000005,1,0,0,0,0,0,,,,,,,
286.5,-1.9395024,6.806623599999999,6.7526056,0.030786800000000007,-0.15857599999999994,-0.040376999999999996,0.4904631999999999,0.06823399999999999,0.3063826000000001,1,0,0,0,0,0,52.339334,4.938724,2.214217,4.47,318.5,3.790092,2.5
287.0,-0.4353741999999999,7.175476799999999,6.742256200000001,0.02481575,-0.10861625,-0.1792075,-0.056881600000000074,0.016752600000000006,0.2210024,1,0,0,0,0,0,,,,,,,
287.5,0.6115456,6.954439999999999,7.4076406000000015,0.031122600000000007,-0.2180112,-0.23016720000000002,0.336851,-0.07958860000000001,0.10735359999999997,1,0,0,0,0,0,52.339365,4.938687,2.19416,4.57,331.700012,3.790092,2.5
288.0,0.30412779999999995,6.8908508,7.992745599999999,-0.008887799999999998,-0.1162748,-0.14935220000000002,0.1893738,0.013339599999999995,-0.009610399999999995,1,0,0,0,0,0,,,,,,,
288.5,-1.4247466000000002,6.816134599999999,,0.06245920000000001,-0.23890219999999998,-0.07846339999999999,-0.48437625,0.01495924999999999,1.0257,1,0,0,0,0,0,52.339399,4.93865,2.234897,4.47,332.200012,3.790092,2.5
289.0,1.332862,7.085148200000001,6.4895742,-0.0023289999999999995,-0.13686800000000002,0.04802775,-0.3739937999999999,-0.243089,-0.3458551999999999,1,0,0,0,0,0,,,,,,,
289.5,-1.6663020000000004,6.912147,6.4579892,0.011422999999999996,-0.0639252,0.1783674,-1.4029997999999997,-0.04831040000000002,0.12689360000000002,1,0,0,0,0,0,52.339445,4.93864,1.905307,5.0,346.200012,3.790092,2.5
290.0,-0.23054839999999996,6.738547800000001,7.6581692000000015,-0.0044898,0.08057080000000001,0.30893580000000004,,0.026104799999999997,0.3550184,1,0,0,0,0,0,,,,,,,
290.5,0.3487540000000001,6.965985400000001,8.0203826,0.0371698,0.1961738,0.15466660000000002,,0.24675875000000005,0.29512625,1,0,0,0,0,0,52.33948,4.938606,1.7402970000000002,4.68,336.100006,3.790092,2.5
291.0,-1.3874782,7.08772,6.192086399999999,-0.014087500000000003,0.16928075000000006,0.06749849999999999,-0.802473,0.2220384,-0.1054364,1,0,0,0,0,0,,,,,,,
291.5,1.0646266000000002,7.158427999999999,7.025028399999999,-0.005161800000000002,0.10503500000000003,0.1623328,-1.0520146,-0.16845839999999998,0.08446679999999998,1,0,0,0,0,0,52.339513,4.938567,1.931423,4.79,321.799988,3.790092,2.5
292.0,-0.4473381999999999,7.1583086,7.2090364000000005,0.0556482,0.113862,-0.008246600000000001,0.21818560000000006,0.17856480000000002,0.24186420000000006,1,0,0,0,0,0,,,,,,,
292.5,-1.6370498000000002,7.298468,5.979065599999999,0.0337496,0.1717702,0.10857799999999998,-0.31952860000000005,0.020034400000000015,0.5839098,1,0,0,0,0,0,52.339545,4.938517,1.996016,5.04,311.299988,3.790092,2.5
293.0,-0.7280762000000001,7.128936399999999,6.046244000000001,0.0207688,0.04786,-0.05305199999999999,0.59489575,-0.42150950000000004,0.422493,1,0,0,0,0,0,,,,,,,
293.5,0.08004000000000003,6.167919199999999,8.187999999999999,-0.008208249999999999,0.03035125,-0.03416925,0.4977088,-0.18504279999999998,0.3357608,1,0,0,0,0,0,52.339577,4.938467,1.977904,4.85,313.0,3.790092,2.5
294.0,-1.4962917999999998,6.999245599999999,5.6023158,0.012889,-0.0436754,-0.12174179999999997,0.9823568000000001,-0.056939400000000015,0.17324840000000002,1,0,0,0,0,0,,,,,,,
294.5,0.439382,7.378388200000002,6.930930600000001,0.0025351999999999996,-0.038025199999999995,-0.0200054,0.2977106,0.10089299999999997,0.07397400000000001,1,0,0,0,0,0,52.33961,4.9384169999999985,2.28908,4.78,316.399994,3.790092,2.5
295.0,-0.09523440000000004,6.6433728,7.7482586,-0.0011302000000000007,-0.0102928,0.008887799999999996,0.10051725,0.11222825,-0.02907325,1,0,0,0,0,0,,,,,,,
295.5,-1.0696516,7.161419199999999,6.369694,-0.00236725,-0.05539625,-0.05929025,0.1940704,0.05430140000000002,0.036359200000000015,1,0,0,0,0,0,,,,,,,
296.0,0.302752,7.412545599999999,6.233661799999999,0.0094682,-0.04853180000000001,0.0476766,-0.06510219999999997,0.08753680000000001,0.07620179999999999,1,0,0,0,0,0,52.33964,4.938375,1.722266,4.48,316.0,3.790092,2.5
296.5,0.499801,6.950910800000001,7.206344199999998,0.009987399999999999,0.060107400000000005,-0.0046728,-0.008294200000000007,0.2028852,-0.032042400000000006,1,0,0,0,0,0,52.33967,4.938328,1.6658240000000002,4.61,319.200012,3.790092,2.5
297.0,-2.1891938000000004,6.767022,6.301139599999999,-0.005863999999999999,-0.049814600000000014,0.08628200000000001,-0.489741,-0.16719775,0.2433525,1,0,0,0,0,0,,,,,,,
297.5,-0.4746759999999999,6.883014,6.569733800000001,0.006169399999999999,0.072019,0.0312756,-0.06964099999999998,0.1431572,-0.1022004,1,0,0,0,0,0,52.3397,4.938283,1.457588,4.43,320.299988,3.790092,2.5
298.0,0.4118046,7.1927054,6.6571916,0.00335975,0.052762,0.0353145,-0.3604063999999999,-0.008509999999999995,0.241242,1,0,0,0,0,0,,,,,,,
298.5,0.11587239999999994,7.1549584,6.3871618,-0.0060168,-0.03604,-0.06438360000000001,0.4369683999999999,0.1349844,-0.12782220000000002,1,0,0,0,0,0,52.339726,4.938237,1.435565,4.24,316.200012,3.790092,2.5
299.0,0.6065805999999999,7.4222964,7.0383081999999995,0.005619600000000001,-0.050395,-0.07922680000000001,0.29115440000000004,0.06220439999999997,0.1023508,1,0,0,0,0,0,,,,,,,
299.5,1.2510274,6.919624400000001,7.4758955999999985,0.004367800000000001,0.013010999999999998,0.071805,0.09882525,0.01896050000000001,0.07861749999999999,1,0,0,0,0,0,52.339758,4.938179,1.331391,4.64,315.799988,3.790092,2.5
300.0,0.2176272,6.524808599999999,7.9593656,0.015615,0.07406549999999999,-0.0417285,0.10237919999999999,0.07113260000000003,0.16570420000000002,1,0,0,0,0,0,,,,,,,
300.5,-0.16965120000000006,6.579365200000002,6.927042200000001,-0.0131334,-0.032772,0.0882674,-0.34225120000000003,-0.005212000000000017,0.0254682,1,0,0,0,0,0,52.339788,4.9381309999999985,1.576218,4.27,316.200012,3.790092,2.5
301.0,-0.6198606,6.856932400000002,7.384071199999998,0.018600400000000003,0.07473699999999997,-0.022907,0.0776098,-0.030134400000000006,0.1659424,1,0,0,0,0,0,,,,,,,
301.5,-1.889911,6.776653200000001,6.2204418,0.006414,-0.108395,-0.1045772,0.18749000000000002,0.19909525,-0.042730500000000005,1,0,0,0,0,0,52.339817,4.938083,1.91931,4.36,315.5,3.790092,2.5
302.0,-0.8065008,7.216992200000001,6.162056999999999,-0.007711750000000002,0.0934595,0.13114125,0.25350239999999996,0.06765060000000002,0.0932234,1,0,0,0,0,0,,,,,,,
302.5,-0.5586641999999998,6.664549599999999,7.767581,0.012766599999999998,-0.009376400000000005,-0.08157879999999999,0.02505999999999998,0.046099000000000015,-0.0738,1,0,0,0,0,0,52.339844,4.9380370000000005,1.660899,4.24,316.700012,3.790092,2.5
303.0,0.7310074000000001,6.8544796,7.8473218,0.00036660000000000013,-0.0563202,-0.022448600000000003,0.4487722,0.068192,0.1689552,1,0,0,0,0,0,,,,,,,
303.5,-0.13387819999999995,7.561080200000001,6.631707799999999,0.0114536,0.006139,-0.014843599999999997,-0.11645299999999995,0.04541225,0.049934499999999986,1,0,0,0,0,0,52.339872,4.9379940000000015,1.760891,4.39,319.5,3.790092,2.5
304.0,-0.3489931999999998,7.2930842,6.2987465999999985,-0.0091628,0.018417,0.156835,-0.33373220000000003,-0.07871839999999998,0.12123319999999999,1,0,0,0,0,0,,,,,,,
304.5,-0.003768800000000017,6.493582399999998,7.658348399999999,0.0140875,0.003703250000000001,-0.18264325,0.5891105999999999,0.08522580000000002,0.07514260000000003,1,0,0,0,0,0,52.339901,4.937952,1.849714,4.33,318.5,3.790092,2.5
305.0,-1.7184654,7.6427952,5.9213988,-0.0104148,-0.032497000000000005,0.030695,-0.341908,0.06671360000000001,0.03904160000000001,1,0,0,0,0,0,,,,,,,
305.5,0.012263000000000012,6.373821599999999,7.784569999999999,-0.0113008,0.0430952,0.096239,0.063805,0.030261999999999994,0.0846168,1,0,0,0,0,0,52.339929,4.93791,1.70825,4.1,318.200012,3.790092,2.5
306.0,0.3269196,6.772166799999999,7.3539818000000015,0.022296,-0.027854400000000005,-0.1576598,0.40208175,0.010025750000000028,0.06583075,1,0,0,0,0,0,,,,,,,
306.5,-0.5375478,7.610611799999999,6.4183878000000005,-0.016569,-0.016913249999999998,0.200396,-0.4420934,-0.0624578,0.1232172,1,0,0,0,0,0,,,,,,,
307.0,0.06951159999999998,6.74776,7.7662052,0.029931600000000006,-0.009956799999999995,-0.2024346,0.821659,0.05536579999999998,0.1647296,1,0,0,0,0,0,52.339956,4.937871,1.511732,4.01,318.0,3.790092,2.5
307.5,-1.1292926,6.957789999999999,6.8901926000000016,-0.003268,0.01719540000000001,0.20200739999999998,-0.6097946000000001,0.05088040000000001,0.12952080000000002,1,0,0,0,0,0,52.339984,4.93783,1.802398,4.14,317.5,3.790092,2.5
308.0,0.115753,7.020721000000001,7.355237599999999,-0.006994199999999999,0.0154546,0.008765400000000001,0.24547125,0.105466,-0.13177850000000002,1,0,0,0,0,0,,,,,,,
308.5,-0.3190828,6.787241400000001,7.592067,0.0097735,0.06589525,0.037681500000000014,-0.2160926,0.03155659999999999,0.043664,1,0,0,0,0,0,52.340011,4.9377879999999985,1.919112,4.08,316.700012,3.790092,2.5
309.0,-0.3856033999999999,7.022934599999999,7.2235726000000025,0.0006107999999999992,0.014660399999999997,0.010934199999999995,0.13499560000000002,0.1220524,0.0454156,1,0,0,0,0,0,,,,,,,
309.5,-1.0359726,7.1255864,6.742375999999999,0.0187224,0.016737400000000003,-0.06368080000000001,0.31886420000000004,-0.017229600000000005,0.1274982,1,0,0,0,0,0,52.340038,4.937745,2.093624,3.99,315.399994,3.790092,2.5
310.0,-0.9848857999999998,6.903473,7.200182799999999,-0.009284800000000005,-0.0475544,-0.0283434,0.2631862,0.22555780000000006,-0.08484639999999997,1,0,0,0,0,0,,,,,,,
