,Acceleration x (m/s^2),Acceleration y (m/s^2),Acceleration z (m/s^2),Gyroscope x (rad/s),Gyroscope y (rad/s),Gyroscope z (rad/s),Linear Acceleration x (m/s^2),Linear Acceleration y (m/s^2),Linear Acceleration z (m/s^2),Latitude (°),Longitude (°),Height (m),Velocity (m/s),Direction (°),Horizontal Accuracy (m),Vertical Accuracy (m),labelnormal,labelbrake,labelstop,labelturnright,labelturnleft,labelaccelerate
0.0,-0.5898806666666666,0.41206383333333335,9.918200166666667,-7.625000000000004e-05,-0.00133625,-0.004772,0.030705250000000003,0.017107,0.06075125000000001,52.349508,4.923717,,,,265.0,0.0,1,0,0,0,0,0
0.5,-0.3188436,0.9062816,10.028319999999999,0.0031460000000000004,-0.004276,0.0358874,-0.11582080000000002,0.11691000000000003,0.044677999999999995,,,,,,,,1,0,0,0,0,0
1.0,-1.15687,1.2032308,9.554959799999999,-0.005558800000000002,-0.0383918,0.1160916,-0.16210300000000002,1.0032298,0.011531599999999993,,,,,,,,1,0,0,0,0,0
1.5,-0.7631908,0.16307100000000002,10.5451096,0.005711400000000001,-0.1291944,0.21187240000000002,-0.5146306,0.050837,0.05041099999999997,,,,,,,,1,0,0,0,0,0
2.0,0.8084747999999999,1.4033305999999999,9.082437000000002,-0.009957,0.11902359999999998,-0.2812342,0.7351075000000001,0.44750775,0.04232425000000001,,,,,,,,1,0,0,0,0,0
2.5,-0.9157332,0.27457640000000005,10.6538632,0.0273355,0.03661299999999999,-0.25113450000000004,0.5040744,-0.5443950000000001,0.06834339999999998,,,,,,,,1,0,0,0,0,0
3.0,0.40534400000000037,1.8628722,8.2227556,0.0092542,0.031153199999999992,-0.5354686,0.5327344,-0.21894280000000005,-0.031242400000000004,52.350674,4.9257145,-3.257955,1.12,216.30000299999998,5.771222,7.2519475,1,0,0,0,0,0
3.5,0.22677960000000003,-0.14721840000000005,11.5535648,0.028801399999999998,-0.19443279999999996,0.19388279999999997,-0.33986500000000003,0.0053035999999999865,0.075198,,,,,,,,1,0,0,0,0,0
4.0,-0.17934200000000006,1.0029516,8.2229948,0.0009162000000000018,0.009254000000000007,0.30511839999999996,-0.43165624999999996,-0.019964499999999996,-0.1144214999999999,52.350654999999996,4.925694999999999,0.386631,1.37,216.30000299999998,4.1541559999999995,5.055315,1,0,0,0,0,0
4.5,-0.8790036000000001,-0.2351546,10.345667599999999,0.02664825,0.03340575,0.23425975,-0.033054600000000045,-0.6472163999999999,0.23820260000000001,,,,,,,,1,0,0,0,0,0
5.0,-1.0719843999999998,0.6051448,9.019266400000001,-0.0355818,0.04981460000000001,-0.21089480000000002,0.08907439999999997,-0.005498999999999999,-0.10995940000000004,52.350639,4.925679,1.4796770000000001,1.58,216.30000299999998,3.790092,3.635771,1,0,0,0,0,0
5.5,0.2836692,0.6546166,8.067162,-0.0368038,-0.0736378,0.23545119999999997,-0.29947819999999997,-0.6475574,0.35463259999999996,,,,,,,,1,0,0,0,0,0
6.0,0.5345564000000002,-0.14883339999999984,12.9201652,0.030022999999999987,0.097705,-0.29894879999999996,0.6072604,0.2916844,-0.5605581999999998,52.35062,4.925659,3.425378,2.21,219.100006,3.790092,3.099022,1,0,0,0,0,0
6.5,0.32350960000000006,-2.0961723999999995,11.7296762,0.048180749999999994,0.013018749999999996,-0.16599775,0.35501475000000005,-0.5609165,0.46714275,,,,,,,,1,0,0,0,0,0
7.0,-1.2993625999999998,1.3097118,8.689057,-0.048043199999999994,-0.029015399999999997,0.01795920000000002,0.41107740000000004,0.1217104,-0.13537520000000006,52.350602,4.925637,4.166489,2.0,219.399994,3.790092,2.760893,1,0,0,0,0,0
7.5,-0.9550353999999999,-1.3523637999999998,11.904053200000002,0.082831,-0.06835379999999999,0.05256339999999997,-0.14136300000000004,-0.29985860000000003,-0.06487440000000007,,,,,,,,1,0,0,0,0,0
8.0,-0.6159124000000002,-0.7606185999999998,11.81181,-0.049662,0.010659199999999999,0.0338102,0.43838166666666667,-0.2612776666666667,0.10636766666666668,52.350584999999995,4.9256150000000005,3.549144,2.09,219.5,3.790092,2.728485,1,0,0,0,0,0
8.5,-0.7010371999999998,3.7828732,2.6532215999999997,0.0232734,0.10976939999999999,-0.037902999999999985,0.9648537999999999,-3.8343704,5.7633704,,,,,,,,1,0,0,0,0,0
9.0,1.9607388000000003,-3.1615764000000004,15.5798474,-0.056656250000000005,-0.104875,-0.14545799999999995,-2.2143812,1.1896233999999994,-2.6651608000000007,52.350564,4.925590000000001,3.424465,3.11,223.600006,3.790092,2.5,1,0,0,0,0,0
9.5,-0.1880159999999999,-0.41539420000000005,12.0233952,0.055129,-0.026113799999999993,-0.061512199999999996,0.05592459999999999,-3.1951464,4.8734582,,,,,,,,1,0,0,0,0,0
10.0,0.021176599999999858,-0.13232319999999986,8.7524066,0.0225708,-0.08072340000000001,0.24549959999999998,-0.33172480000000004,-0.30042939999999996,0.09026020000000004,52.350542,4.92556,3.3604519999999996,2.73,226.0,3.790092,2.532803,1,0,0,0,0,0
10.5,3.1519456000000003,0.4473384000000002,5.9761942,-0.055801,0.06325339999999999,-0.0297176,0.5786952,-0.2991536,-0.4967752,,,,,,,,1,0,0,0,0,0
11.0,0.7330412,-1.351227,10.944531399999999,0.07368349999999999,0.025731999999999994,-0.038444999999999986,0.574483,-0.364265,-0.76632,52.350524,4.925535,3.403747,2.22,226.100006,3.790092,2.5536659999999998,1,0,0,0,0,0
11.5,-0.24855460000000001,-1.442872,11.031032000000002,-0.03524580000000001,-0.027793400000000003,0.053296199999999995,0.574483,-0.364265,-0.76632,,,,,,,,1,0,0,0,0,0
12.0,-0.6199806000000001,-3.0690939999999998,12.802976999999998,0.0010384000000000003,0.0171648,-0.0448668,0.267898,-0.279725,-0.2728285999999999,52.350504,4.925505,2.618057,3.21,225.600006,3.790092,2.5,0,1,0,0,0,0
12.5,0.34576299999999993,-2.1801606,9.6262656,-0.03457400000000001,-0.0006412000000000008,-0.039583000000000014,0.47054740000000006,-0.5439322,-0.09199959999999999,,,,,,,,0,1,0,0,0,0
13.0,-0.33666999999999997,-1.7349758000000002,11.1746014,0.017218500000000005,-0.03955249999999999,0.0786085,-0.9168900000000001,-1.1931559999999999,-0.329382,52.350484,4.925475,2.566986,2.34,224.69999700000002,3.790092,2.5,0,1,0,0,0,0
13.5,-1.8436698,-2.8659432000000002,7.7800834,-0.0198832,0.052136,0.028649000000000008,-0.9168900000000001,-1.1931559999999999,-0.329382,,,,,,,,0,1,0,0,0,0
14.0,-0.4043271999999999,-0.0034097999999999963,9.444709799999998,0.0459052,0.0791048,-0.004520200000000002,-0.3177182,-0.5097065999999998,-0.23142259999999998,52.350474,4.925458,2.673407,0.9,226.5,3.790092,2.5,0,0,1,0,0,0
14.5,-0.7082756,0.31052859999999993,9.537791,-0.003787199999999999,-0.0309396,0.0746454,-0.11527920000000005,0.488514,0.028919,,,,,,,,0,0,1,0,0,0
15.0,-0.37100720000000004,0.08285139999999999,9.978728799999999,-0.0036955999999999994,0.004825600000000001,-0.023151200000000004,0.125724,0.24988000000000002,0.328702,52.350471999999996,4.925455,3.525515,0.0,,3.790092,2.5,0,0,1,0,0,0
15.5,-1.2628122,0.41252279999999997,9.3643712,0.002939749999999999,-0.006185000000000001,0.0038177500000000017,0.125724,0.24988000000000002,0.328702,,,,,,,,0,0,1,0,0,0
16.0,-0.1355534,0.1658822,9.9727464,0.0027183999999999997,-0.0398274,0.00788,0.1531062,0.22855620000000001,0.2788306,52.350471999999996,4.925455,3.9689970000000003,0.0,,3.790092,2.5,0,0,1,0,0,0
16.5,-0.055633,0.20530400000000001,9.8537632,0.0014661999999999998,-0.0081548,0.0010994000000000004,0.036793400000000004,0.0770084,0.058803799999999996,,,,,,,,0,0,1,0,0,0
17.0,0.062392799999999984,0.19758720000000002,9.765288400000001,0.010201199999999999,0.0165232,0.014629800000000004,0.0175118,-0.1643238,0.0935176,52.350474,4.925453,4.21442,0.0,,3.790092,2.5,0,0,1,0,0,0
17.5,0.41174479999999997,1.1383852,10.148798199999998,0.0012217500000000006,-0.0436755,0.16519599999999998,0.07947,-0.388675,0.178053,,,,,,,,0,0,1,0,0,0
18.0,-0.2616552,1.401895,9.530971599999999,0.0240676,-0.0010386000000000006,-0.12482659999999997,0.07947,-0.388675,0.178053,52.350473,4.92545,4.925477,0.0,,3.790092,2.5,0,0,1,0,0,0
18.5,1.3625329999999998,1.3161124,11.060404,-0.0067804000000000015,-0.0687508,0.3522758,-0.9729488,0.4556314,-0.2438822,,,,,,,,0,0,1,0,0,0
19.0,0.5441876,0.34444700000000006,11.2520688,-0.017623000000000007,0.07241600000000001,-0.172595,-0.1382343999999999,0.39016439999999997,0.31304760000000004,52.35047,4.925446,4.8211010000000005,0.41,226.80000299999998,3.790092,2.5,1,0,0,0,0,0
19.5,0.1044465999999999,0.032602200000000095,9.3322476,0.0404305,0.016034750000000004,-0.25075274999999997,-1.384447,0.426731,0.13053,,,,,,,,1,0,0,0,0,0
20.0,-0.6006583999999998,0.9249457999999999,8.888558200000002,0.019302800000000002,-0.0229678,-0.15200940000000002,-1.384447,0.426731,0.13053,52.350460999999996,4.925432,4.767795,1.89,224.80000299999998,3.790092,2.5,1,0,0,0,0,0
20.5,0.5027919999999999,-0.9473185999999997,11.762697399999999,0.0065056000000000055,-0.11648859999999998,0.37933619999999996,-0.9388360000000002,-0.13428899999999996,0.20201679999999994,,,,,,,,1,0,0,0,0,0
21.0,-0.3759724000000001,1.6934004000000002,6.861777600000001,0.08802299999999999,0.1317902,-0.1834986,0.11247120000000002,-0.6836377999999999,-0.05030160000000008,52.350448,4.925412000000001,4.16486,1.61,224.69999700000002,3.790092,2.5,1,0,0,0,0,0
21.5,-0.0632902,-0.6504886,10.343394800000002,-0.13973125,-0.20684825,0.5084157499999999,-1.8710556,-1.2641028,0.34493939999999995,,,,,,,,1,0,0,0,0,0
22.0,0.07549359999999998,1.2919446,7.5363744,0.0485932,0.025197400000000002,0.11416739999999996,-2.377587,-1.3512790000000001,0.17083099999999998,52.350433,4.925391,4.00052,2.15,220.100006,3.790092,2.5,1,0,0,0,0,0
22.5,2.2899314000000004,0.5709873999999999,11.440444,-0.052899400000000006,0.03316899999999999,0.11456439999999998,-2.0427832,-0.6082016000000001,-0.1664666,,,,,,,,1,0,0,0,0,0
23.0,-0.4448854000000001,-0.3884747999999999,10.623594,-0.0003969999999999986,0.1879882,-0.0860988,0.4621452,-0.23672560000000004,0.22196059999999998,52.350415000000005,4.925371,3.721431,2.42,216.0,3.790092,2.5,1,0,0,0,0,0
23.5,-0.9677174,-1.2669994000000002,11.326725200000002,0.024495,0.021013399999999995,-0.3793972,0.5679148000000002,-0.5121508,0.7050254,,,,,,,,1,0,0,0,0,0
24.0,0.2361716000000002,0.8882754000000002,9.0081998,-0.018860000000000002,-0.13087425,0.21673625000000002,0.162968,-0.881517,1.4088100000000001,52.350396,4.925356,3.608541,2.27,208.899994,3.790092,2.5,1,0,0,0,0,0
24.5,-0.31393839999999995,2.0522044,7.0063042,0.015637400000000006,0.08170079999999999,-0.1211004,0.349499,-0.5578988,1.056308,,,,,,,,1,0,0,0,0,0
25.0,0.08321039999999998,2.1769304000000003,8.202895,0.0415374,0.122017,-0.33312559999999997,0.7829042,-0.4934664000000001,0.10666119999999994,52.350376000000004,4.925341,3.3608839999999995,2.66,206.699997,3.790092,2.5,1,0,0,0,0,0
25.5,-0.07196419999999995,0.9418747999999999,9.0193264,0.013835599999999995,-0.1944936,0.03695620000000001,-0.32125139999999996,-0.3413594,0.2339328,,,,,,,,1,0,0,0,0,0
26.0,-0.08985040000000001,-0.5192422000000001,11.021401200000001,0.014278499999999998,-0.020768750000000002,0.030122249999999996,0.21973199999999998,-0.202019,0.8216559999999999,52.35035,4.9253160000000005,3.802606,3.6,214.0,3.790092,2.5,1,0,0,0,0,0
26.5,1.4927026,0.2164308,10.6704936,0.004550799999999998,0.10482140000000002,-0.09025259999999999,0.21973199999999998,-0.202019,0.8216559999999999,,,,,,,,1,0,0,0,0,0
27.0,-0.8666802,0.27571299999999993,9.883195,-0.027457600000000006,-0.0726294,-0.093032,-0.13016139999999995,-0.2872826,0.14071399999999998,52.350326,4.9252839999999996,3.696717,3.27,221.80000299999998,3.790092,2.5,1,0,0,0,0,0
27.5,-0.06957100000000002,-0.32727839999999997,9.513085,0.015088,-0.05167759999999999,-0.043033999999999996,0.1555554,-0.22294300000000003,0.005664800000000003,,,,,,,,1,0,0,0,0,0
28.0,0.5612368,-0.21625119999999995,10.453165000000002,-0.0063528000000000005,-0.0377502,0.1619968,-1.205732,0.363224,-1.289701,52.350307,4.92525,3.6248940000000003,2.89,228.19999700000002,3.790092,2.5,1,0,0,0,0,0
28.5,0.12197399999999989,0.7004388,10.3807824,0.027831499999999995,0.133928,-0.2848075,-1.205732,0.363224,-1.289701,,,,,,,,1,0,0,0,0,0
29.0,-0.5312664,-0.13244259999999994,10.050034400000001,0.006780400000000001,-0.1425718,0.1432436,-1.240073,-0.03212780000000002,-0.6927146000000001,52.350288,4.925212,3.211271,3.51,229.100006,3.790092,2.5,1,0,0,0,0,0
29.5,0.0943970000000001,0.6534800000000001,8.7925466,0.001038600000000002,0.0907414,-0.049325999999999995,0.05370200000000003,-0.2894672,0.06579339999999997,,,,,,,,1,0,0,0,0,0
30.0,-0.08991039999999997,-0.12251239999999988,9.726225600000001,-0.0029016,0.016890000000000006,-0.05903860000000001,1.1457084,0.1256974,-0.46259459999999997,52.350266999999995,4.925173,3.282019,3.4,229.399994,3.790092,2.5,1,0,0,0,0,0
30.5,1.0520044,0.16624119999999998,11.550693599999999,0.03905575,0.14091475,-0.144198,1.28583,0.089225,-0.58587,,,,,,,,1,0,0,0,0,0
31.0,-0.2795414,0.9879966,8.255058600000002,0.0060472,0.1433658,-0.2747894,1.28583,0.089225,-0.58587,52.350246999999996,4.925133,3.376695,3.34,229.100006,3.790092,2.5,0,0,0,1,0,0
31.5,-1.7421544,0.35144600000000004,9.168997399999999,0.0542738,0.12797240000000001,-0.4736814,1.5832226,-0.0855248,0.4227912,,,,,,,,0,0,0,1,0,0
32.0,-1.5424732,-2.0123040000000003,12.164512199999999,0.1581178,0.127209,-0.7397054000000001,1.8706234,-0.1975826,0.46368279999999995,52.350232,4.925088,3.2946769999999996,3.59,239.30000299999998,3.790092,2.5,0,0,0,1,0,0
32.5,-2.164667,-3.8614178000000003,14.340544600000001,0.1912335,-0.011377250000000002,-0.5431195,1.743255,-0.339634,0.6148859999999999,,,,,,,,0,0,0,1,0,0
33.0,-1.4178072,-0.3533002000000002,10.3613408,0.2062834,-9.160000000000834e-05,-0.8674948,1.7390162000000005,-0.18673580000000004,0.0015895999999999452,52.350227000000004,4.925033999999999,3.699425,3.86,263.399994,3.790092,2.5,0,0,0,1,0,0
33.5,-2.273301,-1.5123238,9.5859466,0.10708140000000002,-0.35453579999999996,-0.005283600000000005,-0.11510959999999996,0.13871239999999982,0.1456398,,,,,,,,0,0,0,1,0,0
34.0,1.271845,2.8057043999999998,9.049116999999999,-0.0065359999999999975,-0.08945860000000001,0.14819179999999998,-1.2456022,-1.8420898,1.0496206,52.350235,4.924982,3.860906,3.11,285.0,3.790092,2.5,1,0,0,0,0,0
34.5,-2.6639296000000003,-2.8698918,10.845468799999999,0.04049919999999999,-0.0343296,-0.12180279999999999,0.18328680000000003,-1.0034174,1.1905109999999997,,,,,,,,1,0,0,0,0,0
35.0,0.12460619999999993,1.6575678,9.2292364,0.011338749999999995,-0.13740249999999998,0.09956799999999999,-0.461531,-0.9213863999999999,0.458165,52.350255,4.924939,2.964181,3.24,304.799988,3.790092,2.5,1,0,0,0,0,0
35.5,0.830489,-2.9336604,14.684752600000001,-0.015423799999999991,0.0071774000000000004,0.14669480000000001,-0.8977219999999999,-1.2717889999999998,1.319264,,,,,,,,1,0,0,0,0,0
36.0,1.4940783999999998,-0.9093326000000003,11.435539,0.017409200000000003,0.0886032,-0.0033292000000000044,-0.8977219999999999,-1.2717889999999998,1.319264,52.350279,4.924903,2.6050020000000003,2.98,312.0,3.790092,2.6689119999999997,1,0,0,0,0,0
36.5,-1.1063813999999998,-0.48233300000000057,11.3842728,-0.05326580000000001,-0.08796200000000001,0.1612636,-0.8302992,-0.6267037999999999,-0.15777600000000006,,,,,,,,1,0,0,0,0,0
37.0,0.6160919999999999,-0.5340181999999999,10.3151592,0.01355325,0.19772374999999998,-0.18512499999999998,0.12570719999999994,-0.28017559999999997,-0.2378176,52.350305999999996,4.924867,1.914711,3.4,317.100006,3.790092,2.825718,1,0,0,0,0,0
37.5,0.1688136,0.49698919999999996,8.7631146,0.025502799999999992,-0.0521968,-0.12067280000000002,-0.143849,0.316594,-0.8730319999999999,,,,,,,,1,0,0,0,0,0
38.0,1.4220542,-1.6029518000000003,11.687981599999999,-0.009468199999999993,-0.0412322,-0.02852660000000002,0.009634600000000004,1.3211392,-1.3564193999999998,52.350333,4.924828,1.818232,3.53,316.399994,4.02,3.1094630000000003,1,0,0,0,0,0
38.5,-0.964367,1.135573600000001,10.9402848,0.027304799999999997,0.022142999999999996,0.14467939999999999,-1.0511215999999999,-0.3427135999999999,-1.4325144,,,,,,,,1,0,0,0,0,0
39.0,1.2894326,2.901656,5.7416374,-0.03164950000000001,-0.037147000000000006,-0.000840249999999999,-0.7244945999999999,0.9709150000000001,-2.6503254,52.350358,4.9247879999999995,1.064215,3.24,314.0,3.790092,3.039259,1,0,0,0,0,0
39.5,1.2836893999999999,0.14584220000000006,9.0949992,0.021563000000000002,0.0011300000000000025,0.0314282,-0.8775042000000001,-0.36619,-1.5683951999999999,,,,,,,,1,0,0,0,0,0
40.0,-0.31393819999999995,1.1769698000000002,9.6894958,-0.00552800000000001,0.0693922,-0.1202148,0.1926314000000001,-0.6425662,0.07227380000000001,52.35038,4.924747,1.209303,3.31,313.899994,3.790092,3.072779,1,0,0,0,0,0
40.5,-0.6348756,3.7395629999999995,4.5607202000000004,-0.021440999999999995,-0.028678999999999993,0.038910799999999995,0.36984500000000003,-1.2557202,1.1407892,,,,,,,,1,0,0,0,0,0
41.0,-0.7056431999999999,2.1968503999999998,6.871409,0.0847856,-0.01695100000000001,-0.0368342,0.387855,-1.540578,1.8120369999999997,52.350401,4.924708,1.090964,3.15,315.0,3.927251,3.238699,1,0,0,0,0,0
41.5,-2.3665616,-0.9401400000000001,10.341360599999998,-0.025999000000000005,0.05150199999999999,-0.16779199999999997,-0.10410159999999999,-1.43555,1.3929247999999999,,,,,,,,1,0,0,0,0,0
42.0,0.24095739999999993,-2.4361926,13.319527799999998,-0.0346656,-0.0344518,0.021837600000000006,-0.3098054,-0.3769004,-0.15238899999999994,52.350421999999995,4.9246739999999996,0.7584529999999999,3.03,318.700012,4.1476180000000005,3.343386,1,0,0,0,0,0
42.5,-2.0729022,1.0714462,8.223473199999999,-0.014415999999999995,0.025838999999999994,-0.0383,-0.5993166000000001,-1.3433055999999999,-0.05163100000000004,,,,,,,,1,0,0,0,0,0
43.0,-1.3143774000000001,-3.3390644000000003,13.430195399999999,-0.006689000000000006,-0.0252586,-0.017959000000000006,-1.091308,-1.8197599999999998,0.317895,52.350442,4.9246419999999995,0.491313,2.92,320.600006,4.383055000000001,3.558097,1,0,0,0,0,0
43.5,0.09242279999999994,0.6029909999999997,9.533304399999999,0.007101250000000003,-0.13259225,0.1867665,-1.091308,-1.8197599999999998,0.317895,,,,,,,,1,0,0,0,0,0
44.0,0.5648256,-1.3508082000000003,10.4409026,-0.027488200000000008,0.06575779999999999,0.0014660000000000007,-0.31157959999999996,-0.17679780000000003,0.0805488,52.350463,4.924605000000001,0.970508,3.37,318.399994,4.469079,3.6327580000000004,1,0,0,0,0,0
44.5,-0.9317652000000001,0.03529439999999997,9.5888182,0.06820100000000001,0.04584400000000001,-0.012675200000000001,-0.13572639999999997,0.1384644000000001,-0.18518160000000003,,,,,,,,1,0,0,0,0,0
45.0,-0.5921038000000001,-0.10965099999999992,8.7327856,0.0020768000000000036,-0.0758062,0.07803579999999999,-0.11535100000000001,1.3021690000000001,-1.118247,52.350485,4.924562,1.2494459999999998,3.45,315.299988,4.2659519999999995,3.6756290000000003,1,0,0,0,0,0
45.5,-0.702473,-0.6606583999999998,10.2840522,0.012560250000000002,0.08620575,-0.0719275,-0.11535100000000001,1.3021690000000001,-1.118247,,,,,,,,1,0,0,0,0,0
46.0,-1.5677173999999998,0.9435500000000001,7.6785078,-0.0640168,0.014446599999999999,-0.09520039999999999,-0.04387500000000001,0.25544200000000006,-0.14402800000000002,52.350507,4.924519999999999,1.671572,3.38,315.299988,4.334064,3.784335,1,0,0,0,0,0
46.5,-0.3224925999999999,0.9126823999999998,7.659724199999999,-0.0025044000000000177,-0.04358379999999999,0.004581399999999994,0.41761019999999993,-0.17457000000000003,0.08193960000000003,,,,,,,,1,0,0,0,0,0
47.0,0.11736779999999988,-0.33499540000000005,10.936575399999999,0.0503034,0.023212199999999995,0.08738180000000002,-1.78605,-1.5338379999999998,-0.46383100000000005,52.350532,4.92448,1.045547,3.57,319.200012,4.294533,3.9017769999999996,1,0,0,0,0,0
47.5,-0.059162600000000065,-1.1682356,11.145707999999999,0.019028,-0.0024433999999999984,-0.029106999999999994,-1.78605,-1.5338379999999998,-0.46383100000000005,,,,,,,,1,0,0,0,0,0
48.0,-0.3853041999999999,1.1715857999999997,8.453902199999998,-0.07146899999999999,-0.009658999999999994,-0.015653,-0.5550602000000001,-1.265177,-0.11255700000000006,52.350558,4.924442,0.397857,3.51,321.700012,4.451719000000001,4.099393,1,0,0,0,0,0
48.5,0.7876576,1.8994824000000006,6.6184878,0.045813599999999996,0.0120946,-0.0502422,0.11931040000000001,0.10107299999999997,-0.2025992,,,,,,,,1,0,0,0,0,0
49.0,-0.6333204,1.2369698000000002,7.1550782,-0.0018326000000000009,-0.05317420000000002,0.20243480000000003,-1.0369704,-0.8118402,0.5559185999999998,52.350582,4.924405999999999,0.48374700000000004,3.26,320.299988,4.605299,4.300673000000001,1,0,0,0,0,0
49.5,-0.5655435999999998,-0.39409799999999995,11.6619594,-0.055098400000000006,0.0998736,-0.12455179999999999,-1.180754,-1.277034,1.2546329999999999,,,,,,,,1,0,0,0,0,0
50.0,-2.5264616,1.5040686,7.335437199999999,0.09086375,-0.09533025,-0.011262500000000022,-1.1225558000000002,-1.1299266,0.8816733999999998,52.350606,4.924367,-0.11408099999999999,3.57,315.799988,4.358887999999999,4.16715,1,0,0,0,0,0
50.5,-0.6465409999999998,0.5130212000000001,7.850552,-0.0347572,0.0029319999999999984,0.07941019999999999,-0.021628,-0.05967060000000002,0.2844742,,,,,,,,1,0,0,0,0,0
51.0,-0.3412164000000001,0.3600004000000003,8.4638326,0.018905800000000007,-0.0015270000000000047,-0.06630739999999999,-0.539389,0.7435596,-1.0144794000000001,52.350629,4.924328,-0.764768,3.02,314.100006,4.470244,4.269352,1,0,0,0,0,0
51.5,1.3224532,0.5758325999999998,8.956335200000002,-0.0163402,-0.009743,0.05079199999999999,-0.863325,1.224104,-1.316497,,,,,,,,1,0,0,0,0,0
52.0,1.1533406000000002,-0.8194221999999997,11.636655399999999,0.03443650000000001,0.04100325,-0.009086499999999997,-0.863325,1.224104,-1.316497,52.350653,4.924288,-1.433029,3.68,315.799988,4.9277239999999995,4.474705,1,0,0,0,0,0
52.5,-0.17174479999999998,-0.09002999999999992,10.054042599999999,-0.000488799999999999,-0.0239454,0.029137600000000007,-0.39898600000000006,0.11669020000000004,-0.25093020000000005,,,,,,,,1,0,0,0,0,0
53.0,0.8718845999999999,-1.5394223999999999,13.5726284,0.013469199999999995,0.05790860000000001,-0.0497538,-0.03285019999999998,0.017988599999999976,0.0022732000000000195,52.350679,4.924247,-0.43063599999999996,3.54,316.600006,4.88658,4.644866,1,0,0,0,0,0
53.5,-1.0769496000000003,0.8230114000000001,7.0904124,-0.10714260000000002,-0.00021380000000000287,-0.07195779999999999,-0.16605999999999999,2.812612,-1.6597630000000003,,,,,,,,1,0,0,0,0,0
54.0,0.36113660000000003,-0.3646662000000004,8.582696,0.11157139999999999,-0.0481652,-0.042148399999999996,-0.16605999999999999,2.812612,-1.6597630000000003,52.350705,4.924208,0.197856,3.47,317.700012,5.504563,4.901819000000001,1,0,0,0,0,0
54.5,1.1176278,-3.0686155999999998,14.701023799999998,-0.04527924999999999,-0.0695985,0.231778,-0.5402698,1.3077924000000003,-0.7456646000000001,,,,,,,,1,0,0,0,0,0
55.0,0.6679565999999999,4.8286562,1.9881964000000003,0.0389416,0.01924159999999999,-0.1182598,0.060740000000000016,-0.26043459999999996,0.16668219999999997,52.35073,4.924168,0.632746,3.79,315.600006,5.032032,4.848496,1,0,0,0,0,0
55.5,0.5708080000000002,-0.14853419999999992,8.580243,-0.017989599999999994,0.1062876,0.02055500000000001,0.5711071999999999,0.5137808,-0.8500555999999999,,,,,,,,1,0,0,0,0,0
56.0,0.003409999999999913,-1.3505090000000002,11.5752196,-0.010720400000000001,-0.022081999999999997,-0.12378819999999999,1.951022,1.136148,-2.147642,52.350755,4.924126,0.696477,3.6,315.799988,4.9411510000000005,4.823076,1,0,0,0,0,0
56.5,0.13579299999999997,-0.4394418,12.054262399999999,0.04081225000000001,-0.13679175,0.149314,1.951022,1.136148,-2.147642,,,,,,,,1,0,0,0,0,0
57.0,-0.41198420000000013,3.0098718,6.409295,-0.061206800000000006,0.0565036,-0.11847379999999999,0.5030648,-0.27678079999999994,-0.04249759999999993,52.350778999999996,4.924086,0.825151,3.78,315.299988,4.8104309999999995,4.731463,1,0,0,0,0,0
57.5,-0.9738789999999999,3.4803007999999998,2.7325437999999993,0.0903138,-0.0671014,0.1280338,-0.7149631999999999,-0.30854980000000004,0.20816799999999996,,,,,,,,1,0,0,0,0,0
58.0,0.8975477999999999,2.1598216,6.696673199999999,-0.0202498,0.0398578,0.09413160000000001,0.17599,-1.6030830000000003,2.252023,52.350804,4.924045,1.1775790000000002,3.8,314.700012,4.468732,4.414255000000001,1,0,0,0,0,0
58.5,1.2542578,0.6732802000000001,10.005767,0.089489,0.16179825000000003,-0.15660600000000002,0.17599,-1.6030830000000003,2.252023,,,,,,,,1,0,0,0,0,0
59.0,-0.319741,-1.5242879999999999,10.5790876,-0.0390942,-0.1458092,0.005375400000000002,-0.33726540000000005,-0.5946490000000001,0.7615011999999999,52.350827,4.924003,1.3674680000000001,3.61,314.600006,4.644188,4.411955,1,0,0,0,0,0
59.5,-0.9643673999999999,-2.324986,12.7057684,0.0404994,0.059893600000000005,0.0780358,0.13599160000000002,-0.020866400000000018,0.15806939999999997,,,,,,,,1,0,0,0,0,0
60.0,-1.2633504,-0.8503494,13.336397,-0.022051599999999998,0.0306344,-0.13811259999999997,-0.215706,-0.5563819999999999,-0.125716,52.350852,4.923962,1.4005610000000002,3.95,314.0,4.292101000000001,4.27875,1,0,0,0,0,0
60.5,1.261556,2.6564520000000003,5.7205808,-0.0031457999999999985,-0.0565952,0.07937979999999999,-0.215706,-0.5563819999999999,-0.125716,,,,,,,,1,0,0,0,0,0
61.0,0.6505487999999999,-1.5317056000000002,12.903834600000001,-0.04993675,0.08704550000000001,-0.14160199999999998,-0.07813459999999997,-0.44211779999999995,-0.2678896,52.350877000000004,4.923921,1.23767,3.65,315.100006,4.006835,3.960543,1,0,0,0,0,0
61.5,-0.9541382000000003,0.2635691999999999,10.2923676,0.0212574,-0.11419779999999999,0.030145599999999995,-0.7211924,0.3069462,-0.04980500000000003,,,,,,,,1,0,0,0,0,0
62.0,1.4861821999999998,-1.0284952,11.0909124,0.0054976000000000105,0.065727,-0.05851919999999999,0.6177166,-0.03914239999999998,0.24754479999999995,52.350902000000005,4.923883,1.170544,3.72,316.5,3.802786,3.604178,1,0,0,0,0,0
62.5,-0.34540380000000004,0.2272584000000002,8.1191464,0.06551339999999999,-0.0383612,0.1656312,1.44331,0.682858,-0.139181,,,,,,,,1,0,0,0,0,0
63.0,-0.6979862,1.9626532,8.1921872,-0.08502225,0.01771475,-0.10010250000000001,1.44331,0.682858,-0.139181,52.350927,4.923845,1.679836,3.76,316.799988,3.790092,3.4548669999999997,1,0,0,0,0,0
63.5,0.03212360000000003,-0.21774699999999977,9.687641600000001,0.038116800000000006,-0.0477072,0.015942999999999985,0.3745016,0.02395699999999996,0.12093920000000002,,,,,,,,1,0,0,0,0,0
64.0,-1.2616755999999998,-2.4542586,15.639848,0.029442799999999998,0.10057580000000002,0.021959799999999998,0.14882460000000003,-0.40831800000000007,0.44794799999999996,52.350952,4.923807,1.7235509999999998,3.78,317.299988,3.790092,3.248986,1,0,0,0,0,0
64.5,0.5991628,1.1842080000000001,9.3510908,-0.06826219999999998,-0.06636879999999999,-0.1095248,0.038191,-2.960636,2.831816,,,,,,,,1,0,0,0,0,0
65.0,2.041915,4.1353358,4.602773600000001,0.06484139999999998,-0.050303200000000006,0.1536892,0.038191,-2.960636,2.831816,52.350976,4.923769999999999,2.1765060000000003,3.64,317.100006,3.790092,3.212114,1,0,0,0,0,0
65.5,2.5748566,-1.092802,14.181422600000001,-0.04046875,0.0429505,0.016225749999999997,-0.028964199999999975,-1.3116307999999997,1.5213236,,,,,,,,1,0,0,0,0,0
66.0,-0.15661019999999998,0.1298705999999999,9.389556,0.009346000000000004,-0.031092,0.1400674,-0.511433,-0.5428742000000001,0.6044634,52.351,4.923731,2.237186,3.82,316.100006,3.790092,2.807684,1,0,0,0,0,0
66.5,1.0857430000000001,-1.6786847999999999,13.1982718,0.0297786,0.1294692,-0.03891100000000001,1.1080564,0.08923640000000013,-0.689089,,,,,,,,1,0,0,0,0,0
67.0,-1.0555938,-2.2304696,11.004830799999999,0.028251599999999995,-0.09077199999999999,-0.08695420000000005,1.3982729999999999,-0.692398,-0.206076,52.351024,4.923690000000001,2.832716,3.84,314.299988,3.790092,2.653225,1,0,0,0,0,0
67.5,-0.6385248,-0.17210359999999997,10.5144814,-0.031802,0.0731875,-0.14973374999999997,1.044694,-0.6262179999999999,-0.2000618,,,,,,,,1,0,0,0,0,0
68.0,0.8033301999999999,-0.12323039999999982,9.4753984,0.029900999999999994,-0.0322222,0.036711799999999996,-0.15616780000000002,-0.394882,0.2511118,52.351048,4.92365,2.731958,3.7,315.399994,3.790092,2.6780459999999997,1,0,0,0,0,0
68.5,-1.5366107999999998,6.2940802,2.222812200000001,-0.023945,-0.07614220000000001,0.0795018,-0.4834440000000001,0.6584788,-2.0296846000000004,,,,,,,,1,0,0,0,0,0
69.0,-1.4274383999999998,-0.6505485999999999,12.288340999999999,0.0221128,0.1224748,-0.05625920000000002,-0.034186,-0.174171,-2.2724830000000003,52.351071999999995,4.923613,2.816443,3.53,318.299988,3.790092,2.915066,1,0,0,0,0,0
69.5,-0.9017950000000001,-0.8899507999999999,10.801978799999999,-0.04474449999999999,-0.0423395,-0.07284350000000002,-0.034186,-0.174171,-2.2724830000000003,,,,,,,,1,0,0,0,0,0
70.0,0.8583656000000002,1.7432311999999996,4.6995636,0.07681400000000001,-0.034177,-0.055342800000000004,0.3254128,0.06608259999999996,-1.0065424000000003,52.351098,4.923576000000001,2.50402,3.71,321.399994,4.047611,3.269295,1,0,0,0,0,0
70.5,2.842793,-0.49250260000000023,11.3690182,-0.040193799999999995,0.048531599999999994,0.11031900000000001,-0.36692819999999987,0.14164379999999993,-0.41556960000000015,,,,,,,,1,0,0,0,0,0
71.0,-0.08614139999999991,-0.0010170000000005786,9.111031200000001,-0.003970800000000002,-0.0770586,-0.030573000000000006,0.147655,0.540091,-0.8091329999999999,52.351123,4.923539,2.352118,3.52,318.899994,3.790092,3.10403,1,0,0,0,0,0
71.5,-0.9453444000000001,-1.6865812000000004,12.386686000000001,0.015057400000000004,0.0025045999999999957,0.10002620000000002,0.147655,0.540091,-0.8091329999999999,,,,,,,,1,0,0,0,0,0
72.0,1.3476974,-0.1984248000000001,9.369276800000002,-0.015309499999999997,0.02011949999999999,-0.03985750000000001,0.006003400000000036,0.3755596,-0.4768324,52.351147,4.9235,2.22951,3.55,316.5,3.790092,3.10143,1,0,0,0,0,0
72.5,0.8340182,1.1953944,8.621998,0.001435599999999998,-0.040285400000000006,0.008582400000000007,-0.270402,-0.090113,0.05270020000000003,,,,,,,,1,0,0,0,0,0
73.0,-1.597568,1.7233108000000001,7.6770122,-0.024250600000000004,0.12635380000000002,-0.0361622,0.5215515999999999,0.5542014,-0.6159766,52.351172,4.923461,1.936677,3.57,314.799988,3.8777690000000002,3.3284830000000003,1,0,0,0,0,0
73.5,0.27619160000000004,-0.5959322,8.8500938,0.056380999999999994,-0.0471882,-0.1208866,0.463227,0.8870479999999998,-1.377358,,,,,,,,1,0,0,0,0,0
74.0,-1.6350756,-6.444888199999999,18.5743456,0.029435249999999996,-0.04428625,-0.1418695,0.463227,0.8870479999999998,-1.377358,52.351198,4.923421,1.8628369999999999,3.66,315.600006,4.181774,3.605932,1,0,0,0,0,0
74.5,-0.5207379999999999,2.0069798000000003,6.732087,-0.09138280000000001,-0.10069819999999999,0.3434486,-1.1809796,0.18000599999999997,-0.6950930000000002,,,,,,,,1,0,0,0,0,0
75.0,2.5000212,1.9114466,6.1446492,0.0657576,0.056197799999999985,-0.017470200000000005,-0.07598880000000005,0.07460139999999997,-0.09554160000000005,52.351223,4.923383,2.6129119999999997,3.62,316.399994,3.790092,3.347494,1,0,0,0,0,0
75.5,-0.10133599999999995,0.4342972000000003,11.0105138,-0.010659199999999997,0.1253766,-0.1208256,-0.745833,0.5019319999999999,-1.35612,,,,,,,,1,0,0,0,0,0
76.0,0.1673184,-5.9771512,14.940425600000001,0.07215649999999998,-0.1060585,-0.091016,-0.745833,0.5019319999999999,-1.35612,52.351247,4.923348000000001,2.129588,3.28,315.700012,3.8105510000000002,3.273707,1,0,0,0,0,0
76.5,0.018544600000000043,0.16558319999999985,8.152526,-0.0721106,-0.050272800000000006,0.1570796,-0.0892018,0.25884159999999995,-0.658609,,,,,,,,1,0,0,0,0,0
77.0,0.09206380000000003,3.9568912000000003,7.814540200000001,-0.002168600000000004,0.1193902,-0.10121760000000002,-0.280642,0.004122199999999948,-0.10735140000000007,52.351271999999994,4.923309,2.906335,4.02,315.899994,3.790092,3.137483,1,0,0,0,0,0
77.5,0.10444679999999992,-0.8793025999999997,11.380862600000002,0.012217,-0.044683400000000005,-0.05213559999999999,0.714252,-2.035484,1.653836,,,,,,,,1,0,0,0,0,0
78.0,-0.7016353999999997,1.4471790000000002,8.110831399999999,0.0131944,0.0061696,0.10537120000000003,0.714252,-2.035484,1.653836,52.351298,4.92327,3.091224,3.72,315.100006,3.790092,3.004766,1,0,0,0,0,0
78.5,0.6489932000000002,-3.3760932000000006,14.567384999999998,0.013286000000000006,-0.05302925,-0.08464074999999997,0.6242154,-1.8559358,1.4765112,,,,,,,,1,0,0,0,0,0
79.0,0.4864609999999999,-0.20865440000000007,10.645728000000002,-0.026235799999999986,0.026235800000000004,0.04471399999999999,-0.27738820000000003,-0.23736379999999996,-0.02903139999999995,52.351324,4.9232309999999995,2.947867,3.82,316.299988,3.790092,3.159857,1,0,0,0,0,0
79.5,-0.09278159999999999,1.8369100000000003,7.4384478000000005,0.01536300000000001,-0.0456304,0.002260199999999998,-0.017523399999999998,-0.14621499999999998,-0.289418,,,,,,,,1,0,0,0,0,0
80.0,-0.21535399999999996,-1.277887,11.2512314,0.04899,0.033779800000000006,0.021135400000000006,0.18421099999999999,-0.7486468000000001,0.34147180000000005,52.351347,4.923195,2.3553509999999998,3.29,315.799988,4.014419999999999,3.3329150000000003,1,0,0,0,0,0
80.5,0.9128620000000002,1.8068203999999999,7.139524800000001,-0.06467350000000001,0.033100250000000005,-0.012064249999999997,-1.4108854000000002,1.8553082000000003,-1.2107298,,,,,,,,1,0,0,0,0,0
81.0,-1.0743174,0.38392839999999995,10.5644314,-0.021899200000000008,-0.004642600000000001,-0.0453556,-0.0320733999999999,-2.3316976000000005,3.2540698,52.351371,4.923159,2.548418,3.73,317.399994,4.176686,3.474503,1,0,0,0,0,0
81.5,0.04558339999999994,2.9441289999999993,6.773064,0.0385752,0.0375366,0.006475000000000003,-0.6592326,-0.9099181999999999,0.11166380000000027,,,,,,,,1,0,0,0,0,0
82.0,-0.9209973999999999,0.5603988,9.645767,-0.011605999999999995,-0.12052020000000001,-0.11783259999999998,-1.7997589999999999,-2.0390210000000004,3.3921465999999993,52.351397,4.923121,2.63382,3.65,316.799988,3.790092,3.230109,1,0,0,0,0,0
82.5,0.2743372,-1.2922438,10.6064256,0.079013,0.003176599999999985,0.2620842,-1.5237209999999999,-4.788401,6.713272999999999,,,,,,,,1,0,0,0,0,0
83.0,0.14135599999999995,-1.7342579999999999,14.5841344,-0.06513175,0.14488525000000002,-0.06337525,-1.1700274,-4.21401,5.5749112,52.351423,4.923081,2.832809,3.71,316.799988,3.790092,3.2166669999999997,1,0,0,0,0,0
83.5,-0.566022,1.7710475999999997,8.3468232,0.0170426,-0.0719884,-0.17702320000000002,0.4861644,-0.4889626000000001,-0.024690600000000028,,,,,,,,1,0,0,0,0,0
84.0,2.0351554,2.0904298,8.4100538,0.021776599999999997,-0.021410000000000002,0.07321,-0.47313679999999997,-1.3163744000000002,0.37006300000000003,52.351445,4.923047,3.053219,3.03,315.100006,3.9824839999999995,3.3583550000000004,1,0,0,0,0,0
84.5,1.147538,-1.7680564,11.672189,-0.0084296,-0.0422708,0.11303719999999999,0.9768243999999999,-0.3589053999999997,0.20433059999999975,,,,,,,,1,0,0,0,0,0
85.0,0.5525026000000001,3.3964324000000006,3.6166918000000003,-0.00649050000000001,0.06455925,0.011529750000000005,0.8508066000000001,0.22970079999999987,1.190257,52.351468,4.9230089999999995,2.8678060000000003,3.92,314.899994,3.790092,3.214063,1,0,0,0,0,0
85.5,-1.6171891999999999,-1.5305096,11.461321199999999,-0.005741799999999991,0.0919632,-0.2204548,2.6258642,-0.8080919999999999,3.0105122,,,,,,,,1,0,0,0,0,0
86.0,1.2760326000000002,0.5929412000000001,9.7809018,0.0211356,-0.10002639999999999,-0.006108599999999997,-0.20248680000000002,-0.3608471999999999,-0.2505402000000001,52.351493,4.922967,3.425739,3.56,314.399994,3.790092,3.099367,1,0,0,0,0,0
86.5,-2.2112076000000007,5.554219600000001,1.399502,0.017378600000000004,0.023731400000000007,0.12323839999999997,0.8121778,-2.455275,2.9965444,,,,,,,,1,0,0,0,0,0
87.0,1.8701704000000003,-2.1902102000000006,12.509317600000001,0.051502000000000006,-0.085366,-0.026610000000000005,0.850142,-3.069528,3.574604,52.351516,4.922928,3.629607,3.59,315.899994,3.790092,2.991358,1,0,0,0,0,0
87.5,-0.3519243999999999,-0.9043076000000001,10.5018594,-0.055434400000000016,-0.0012828000000000062,0.11169360000000002,0.850142,-3.069528,3.574604,,,,,,,,1,0,0,0,0,0
88.0,-0.9939188000000001,3.4816168,5.048676199999999,-0.006383399999999995,0.10259180000000001,-0.029625999999999996,-0.1518958,-0.23449980000000004,-0.38096240000000003,52.351539,4.922889,3.605324,3.32,315.399994,3.790092,3.047703,1,0,0,0,0,0
88.5,0.8297112,0.10995020000000011,10.774521600000002,0.019608000000000007,0.022754200000000006,-0.1413802,0.1656976,-0.873537,0.4369572,,,,,,,,1,0,0,0,0,0
89.0,0.45732819999999996,-0.4497311999999999,12.0035946,0.0274576,-0.0798072,0.08429679999999999,0.141782,-1.275774,1.348341,52.351563,4.92285,3.7372330000000002,3.68,316.799988,3.9301239999999997,3.267571,1,0,0,0,0,0
89.5,0.3701696000000001,0.27349959999999995,9.3485786,0.04917300000000001,0.00019075000000000342,-0.0013745000000000007,0.141782,-1.275774,1.348341,,,,,,,,1,0,0,0,0,0
90.0,1.3345372000000002,-0.6528816,11.5876026,-0.056533999999999994,-0.0127364,0.053632400000000004,0.2159032,-0.6295918,0.2453264,52.351587,4.922812,4.046571,3.49,315.5,3.790092,3.039124,1,0,0,0,0,0
90.5,0.6466004,1.2000604,9.2787082,0.007207999999999997,0.037597599999999995,0.07211039999999999,-0.3023392,-0.2958882,-0.090601,,,,,,,,1,0,0,0,0,0
91.0,0.6059226000000001,0.5099701999999997,7.5558758,0.04224,0.02641920000000001,-0.1884462,0.9688559999999999,-0.59518,1.7516450000000003,52.35161,4.922776,4.642714,3.35,316.700012,3.790092,3.0752599999999997,1,0,0,0,0,0
91.5,-2.1649064000000005,-2.1061623999999997,11.866486,-0.02038699999999999,0.005382999999999995,-0.07143074999999999,0.9688559999999999,-0.59518,1.7516450000000003,,,,,,,,1,0,0,0,0,0
92.0,1.7608781999999998,-0.8849858000000002,12.4044524,-0.0440728,-0.11004420000000001,0.11829039999999999,0.3025732,0.03587499999999997,0.4889288000000002,52.351634000000004,4.922738,4.5893809999999995,3.76,315.799988,3.8297199999999996,3.133939,1,0,0,0,0,0
92.5,1.2476178,0.31304119999999996,10.5526468,0.010109400000000008,-0.0417514,0.1222304,-0.04259420000000005,-0.5988702,0.3388104,,,,,,,,1,0,0,0,0,0
93.0,2.4525832000000003,-1.6849658,13.6496176,0.004306400000000004,0.18358999999999998,-0.11993980000000001,0.765881,-1.1818605999999998,1.0586212,52.351658,4.9226980000000005,4.094397,3.37,315.899994,3.790092,3.086969,1,0,0,0,0,0
93.5,-0.3123228,1.6609778,8.1461254,0.00664300000000001,-0.16061475,0.03997250000000001,1.351121,-3.570778,3.2057139999999995,,,,,,,,1,0,0,0,0,0
94.0,1.12684,0.16259220000000046,8.696714199999999,0.0043370000000000014,0.098438,0.009254200000000004,1.351121,-3.570778,3.2057139999999995,52.35168,4.922662,3.4350449999999997,3.21,315.0,3.790092,3.1688330000000002,1,0,0,0,0,0
94.5,0.12771720000000003,-2.8475788,11.986486,0.0360398,-0.025288999999999996,-0.10024000000000002,-0.1546108,0.08197199999999996,-0.4431998000000001,,,,,,,,1,0,0,0,0,0
95.0,1.1667404,0.7948956,10.851032,-0.017165,0.029259599999999997,-0.18612519999999996,0.9827872,-0.5043966,0.36540399999999995,52.351703,4.922628,3.647277,3.39,317.100006,3.8563949999999996,3.2502590000000002,1,0,0,0,0,0
95.5,0.31052840000000004,1.0827524,7.710511800000002,0.006108399999999999,-0.0361622,0.09831599999999999,1.095982,1.062056,-0.9903139999999999,,,,,,,,1,0,0,0,0,0
96.0,-0.4641478,1.3024132000000002,9.8158968,0.03546725,-0.14144925,0.030007750000000003,1.095982,1.062056,-0.9903139999999999,52.351727000000004,4.9225900000000005,4.222607,3.74,317.399994,3.790092,3.035116,1,0,0,0,0,0
96.5,0.18604199999999968,-3.1695924,12.780604,0.006719399999999998,0.058641200000000004,0.006169799999999998,1.0215862000000002,-0.5612476,0.5747783999999999,,,,,,,,1,0,0,0,0,0
97.0,-1.3004394000000001,-0.11264219999999998,8.180941,-0.008216000000000003,-0.1011258,0.1923862,-0.6446564,0.32743159999999993,-1.5638193999999999,52.351751,4.922553,4.375268,3.44,317.100006,3.790092,2.979748,1,0,0,0,0,0
97.5,-0.006699799999999989,0.17659040000000018,9.7029554,-0.04679080000000001,0.05595359999999999,0.05109739999999998,-1.595093,-0.520358,0.734047,,,,,,,,1,0,0,0,0,0
98.0,0.8104492000000001,1.7270794000000003,9.3346402,0.0547855,0.19997625,-0.19295125000000002,-1.595093,-0.520358,0.734047,52.351773,4.922518,4.100438,3.36,314.5,3.790092,3.007482,1,0,0,0,0,0
98.5,0.09888339999999998,-1.1657832,13.074681600000002,0.0057115999999999955,-0.1297746,0.01792840000000001,-1.486579,-0.3768254,0.5779764000000001,,,,,,,,1,0,0,0,0,0
99.0,0.1658824,1.8670000000000002,9.864889600000001,-0.0087048,0.0514026,-0.0929404,0.8240576,-0.41239400000000004,0.21037680000000006,52.351795,4.922480999999999,4.754683,3.49,314.100006,3.790092,2.825282,1,0,0,0,0,0
99.5,-1.4464612,0.4514659999999999,9.732387200000002,-0.0229682,-0.018814000000000004,0.1541166,-0.7502462000000001,0.6280864000000002,-0.7371108,,,,,,,,1,0,0,0,0,0
100.0,-1.6459030000000001,-0.28851480000000007,11.0382702,0.068537,0.0712248,-0.18334580000000003,-0.684359,1.136133,-0.8145620000000001,52.351817,4.9224440000000005,4.832269,3.46,314.399994,3.790092,2.6927209999999997,1,0,0,0,0,0
100.5,-0.1595416,-0.3552744000000002,9.000243600000001,-0.07925749999999998,0.003665,-0.200129,-0.684359,1.136133,-0.8145620000000001,,,,,,,,1,0,0,0,0,0
101.0,-0.2778663999999999,1.6621742000000002,8.694321200000001,0.0406824,-0.18340659999999998,0.3783282,-1.3023010000000002,0.14885540000000003,-0.23884,52.351838,4.922409,5.07526,3.27,316.600006,3.790092,2.779534,1,0,0,0,0,0
101.5,1.410868,0.17389839999999984,9.869436199999999,-0.023578599999999998,0.0504864,-0.12412400000000001,0.33115559999999994,0.01707220000000002,-0.166833,,,,,,,,1,0,0,0,0,0
102.0,-0.2794816,0.18622160000000001,9.4815596,0.05457919999999998,0.0935206,-0.04278960000000002,-0.361632,-1.469122,2.121095,52.351859999999995,4.922372,5.2839480000000005,3.54,315.799988,3.790092,2.800558,1,0,0,0,0,0
102.5,1.9085750000000001,-3.3062228000000005,11.4309324,-0.0707055,-0.04634800000000001,0.06230649999999997,-0.361632,-1.469122,2.121095,,,,,,,,1,0,0,0,0,0
103.0,0.1682752,-1.5217156000000003,12.891930400000001,-0.014904800000000001,-0.0226318,-0.08258660000000001,0.0816478,-1.1953053999999999,1.7979709999999998,52.35188,4.9223349999999995,5.165058999999999,3.08,316.0,3.790092,2.91322,1,0,0,0,0,0
103.5,-0.13088740000000004,4.2714878,2.199004,0.0462104,0.090558,-0.07495099999999999,0.18343960000000004,-0.438201,0.049274600000000016,,,,,,,,1,0,0,0,0,0
104.0,-0.10570280000000007,1.2285350000000002,8.405387600000001,0.032924600000000005,-0.0876564,-0.024953200000000005,-0.12778819999999996,-0.7625012,0.23011220000000013,52.351902,4.9222980000000005,5.2752989999999995,3.68,315.899994,3.790092,2.8950270000000002,1,0,0,0,0,0
104.5,-0.0659819999999998,-1.0472787999999995,12.663236399999997,-0.053907,0.015767749999999997,0.15946925,0.406805,-1.547291,1.0442870000000002,,,,,,,,1,0,0,0,0,0
105.0,0.026620199999999983,-2.4652056,13.784991999999999,0.0234566,0.0302062,-0.16236319999999999,0.406805,-1.547291,1.0442870000000002,52.351927,4.922261,4.968368,3.52,318.899994,3.790092,2.728684,1,0,0,0,0,0
105.5,1.5120844000000002,1.3049858,9.845867000000002,0.0344212,-0.12094780000000001,-0.04098759999999998,0.2613710000000001,-0.016251199999999955,-0.4250388000000001,,,,,,,,1,0,0,0,0,0
106.0,1.0263414000000002,1.6957934000000001,7.9061254000000005,-0.07321,-0.005100600000000001,0.2365506,-0.3496026,-0.9739683999999998,0.8557174,52.351951,4.922229,5.242187,3.21,320.399994,3.790092,2.520381,1,0,0,0,0,0
106.5,1.4493924,-1.4910277999999997,11.761620400000002,0.08249480000000001,-0.006596999999999997,0.0573588,-1.165141,-1.7269320000000001,1.7951099999999998,,,,,,,,1,0,0,0,0,0
107.0,1.7736798,1.0415357999999995,9.2306724,-0.02634275,0.0708965,-0.10693649999999999,-1.165141,-1.7269320000000001,1.7951099999999998,52.351974,4.922197,5.015028,3.17,320.0,3.790092,2.5,1,0,0,0,0,0
107.5,0.6342175999999999,-2.107239,12.917593400000001,0.028526399999999997,0.004795000000000002,0.16465400000000002,-0.8677184,-1.3515694,0.8933077999999999,,,,,,,,1,0,0,0,0,0
108.0,-0.5566902,-0.3727421999999999,12.0240532,0.035704199999999985,-0.095445,0.1145034,-0.5599044,-0.1897274,-0.24281800000000006,52.351999,4.9221639999999995,5.208464,3.38,319.299988,3.790092,2.5,1,0,0,0,0,0
108.5,1.7983856,3.051806,6.053303,-0.040468800000000006,0.23239700000000002,-0.047463000000000005,2.082052,1.272833,-2.268366,,,,,,,,1,0,0,0,0,0
109.0,-0.4807778,0.4723431999999999,9.0742414,0.026648249999999978,0.09422300000000002,-0.34230350000000004,2.082052,1.272833,-2.268366,52.352021,4.922128,5.104349,3.21,315.100006,3.790092,2.5,1,0,0,0,0,0
109.5,0.48729839999999996,-1.6868202,12.640085199999998,-0.074096,-0.24794299999999997,0.019424799999999985,1.47335,0.8968636,-1.7736245999999998,,,,,,,,1,0,0,0,0,0
110.0,0.21780680000000002,2.4808786,4.3089952,0.09083299999999997,0.12201680000000001,-0.086557,1.0554232,-0.130141,-0.32893100000000003,52.352042,4.922092,5.6107059999999995,3.15,316.100006,3.790092,2.5,1,0,0,0,0,0
110.5,-1.7508882,2.2904098,6.449554399999999,-0.012889000000000006,0.021563000000000006,-0.10451599999999998,0.020972199999999976,-1.5454426,1.1680688,,,,,,,,1,0,0,0,0,0
111.0,0.8274381999999999,0.13674980000000012,8.903094800000002,0.026388599999999995,-0.019119399999999998,-0.090436,0.63825,-2.499874,2.297943,52.352063,4.922057,6.088498,3.28,316.399994,3.790092,2.5,1,0,0,0,0,0
111.5,-0.5175675999999999,1.2651452,7.8897346,-0.025350000000000008,-0.1455345,0.21181125,0.63825,-2.499874,2.297943,,,,,,,,1,0,0,0,0,0
112.0,1.8686748000000002,-0.9294917999999999,12.0384104,0.019027799999999997,0.1279422,-0.1068676,0.25089700000000004,-0.44031020000000004,0.6048722,52.352086,4.922022,6.155345,3.34,322.0,3.790092,2.5,1,0,0,0,0,0
112.5,-1.3595419999999998,1.1829518,8.3441314,0.007177399999999995,0.0007939999999999975,-0.2686814,0.8172708,-0.1725375999999999,-0.06731800000000003,,,,,,,,1,0,0,0,0,0
113.0,0.3163312,-2.7816564,14.2383718,0.0038787999999999904,-0.13799039999999999,0.28569340000000004,1.366355,-0.05699,-0.612267,52.352109000000006,4.921991,6.2853639999999995,3.04,322.799988,3.790092,2.5,1,0,0,0,0,0
113.5,0.23778679999999994,0.6056831999999999,9.0308118,-0.006795500000000004,0.033444,-0.0486005,1.366355,-0.05699,-0.612267,,,,,,,,1,0,0,0,0,0
114.0,0.7532008,0.7724627999999999,10.1017796,0.0113924,0.0494178,-0.09388719999999999,0.8987774,-0.1447816,-0.08802399999999999,52.352132,4.921962000000001,6.417032,3.11,325.299988,3.790092,2.5,1,0,0,0,0,0
114.5,-1.7517258000000002,1.3831112000000003,6.961199800000001,0.015821000000000005,0.0344516,0.094101,0.023345199999999976,-0.6026634000000001,0.3355696,,,,,,,,1,0,0,0,0,0
115.0,0.10480579999999999,-0.5938985999999999,10.7919892,-0.025228,-0.08142579999999999,-0.0577558,0.8399829999999999,0.798149,-1.054323,52.352156,4.921936,7.075988000000001,3.11,327.700012,3.790092,2.557934,1,0,0,0,0,0
115.5,0.04265219999999994,0.8731410000000001,8.336833599999999,0.00736825,0.033023750000000004,0.09494875,0.8399829999999999,0.798149,-1.054323,,,,,,,,1,0,0,0,0,0
116.0,0.40660040000000003,0.4949554000000001,10.5294364,0.050700199999999994,0.059313400000000016,-0.230045,0.8388982,0.6386216,-1.1423342,52.352181,4.921908,7.414996,3.36,327.200012,3.790092,2.5,1,0,0,0,0,0
116.5,0.26416739999999994,-0.48101700000000003,9.882178,-0.038330800000000005,-0.1330732,0.1351194,-0.25847040000000004,-0.2113358,-0.0329636,,,,,,,,1,0,0,0,0,0
117.0,-0.19950140000000002,-1.9830517999999997,12.3204646,0.0204328,0.041446,0.136677,-0.4627388,0.23755920000000003,-0.1430282,52.352206,4.9218779999999995,7.156714,3.2,326.399994,3.790092,2.5,1,0,0,0,0,0
117.5,-0.9247066,1.2315855999999994,8.526883,-0.007268999999999989,-0.0189364,-0.016889600000000005,-0.720208,0.749017,-0.474313,,,,,,,,1,0,0,0,0,0
118.0,1.0262218,2.4661028000000003,6.8151178,0.045966,0.007253749999999995,-0.029053499999999993,-0.720208,0.749017,-0.474313,52.35223,4.921849,6.995659,3.2,323.399994,3.790092,2.5,1,0,0,0,0,0
118.5,0.6397214000000002,-1.0484151999999998,11.2040332,-0.0714996,0.0208606,0.028954,0.03978300000000001,0.023217800000000004,-0.310973,,,,,,,,1,0,0,0,0,0
119.0,-0.9239286,-0.6608975999999999,9.981899,0.05439580000000001,0.016798200000000006,-0.059862799999999994,-0.26486820000000005,-0.3481038,0.27963440000000006,52.352252,4.921821,7.23066,2.82,324.899994,3.790092,2.524632,1,0,0,0,0,0
119.5,0.8825926,0.01920220000000015,9.9725666,0.020952199999999997,-0.0248004,0.08768699999999999,-1.8072580000000003,0.037369,0.093239,,,,,,,,1,0,0,0,0,0
120.0,-0.27810580000000007,-0.43824520000000045,10.6625374,-0.04287375,0.139082,-0.27186499999999997,-1.8072580000000003,0.037369,0.093239,52.352273,4.921792,7.402609,2.88,322.700012,3.790092,2.5,1,0,0,0,0,0
120.5,-0.5745166000000002,0.3072984,10.1257076,-0.003207000000000006,-0.1749464,0.1948908,-1.6143324,-0.31179100000000004,0.22682419999999998,,,,,,,,1,0,0,0,0,0
121.0,1.5343976000000001,0.15122620000000006,10.1787686,-0.011270000000000002,0.1024084,-0.09181039999999999,0.5233228000000001,-0.29753339999999995,0.32202840000000005,52.352294,4.921765,7.359653999999999,2.88,323.299988,3.790092,2.5,1,0,0,0,0,0
121.5,-0.6433101999999999,-2.5417758000000004,12.825469799999999,0.027213400000000006,-0.015240599999999997,-0.0040316000000000084,-0.0365676,-0.3616174,0.3515656,,,,,,,,1,0,0,0,0,0
122.0,-0.5155338,1.825245,6.431428599999999,-0.00973525,-0.06055,0.04844775,-0.239983,-0.8403219999999999,1.051647,52.352314,4.9217379999999995,7.160082000000001,2.84,323.299988,3.790092,2.5,1,0,0,0,0,0
122.5,0.5991028,1.6688142,7.6603824000000005,0.0325584,-0.06108479999999998,0.0985908,-0.239983,-0.8403219999999999,1.051647,,,,,,,,1,0,0,0,0,0
123.0,-0.3671788,0.4900500000000001,9.969336799999999,-0.040652,0.028068400000000004,0.203351,-0.0993764,0.18653540000000005,-0.215548,52.352335,4.921713,7.459841,2.79,323.700012,3.790092,2.5,1,0,0,0,0,0
123.5,-0.053718799999999955,-0.8489136,11.4645516,-0.0063832,0.17024299999999998,-0.2697502,0.5495447999999999,0.11781639999999997,-0.23865600000000006,,,,,,,,1,0,0,0,0,0
124.0,0.4130609999999999,0.5922234,7.8969132,0.010048199999999993,-0.13362279999999999,-0.0871374,-0.307708,2.146541,-2.648099,52.352356,4.921687,7.2679,2.77,322.5,3.790092,2.5,1,0,0,0,0,0
124.5,0.9251847999999997,0.38321059999999996,9.251549799999998,0.021303250000000006,-0.01771475,0.065475,-0.307708,2.146541,-2.648099,,,,,,,,1,0,0,0,0,0
125.0,0.9412765999999999,0.3684348000000002,8.7900938,-0.015546200000000001,0.0402852,0.102378,-0.18096400000000007,0.41346439999999995,-0.6223286000000001,52.352377000000004,4.921661,7.0494699999999995,2.89,322.399994,3.790092,2.5,1,0,0,0,0,0
125.5,1.429532,-1.634597,10.4638732,-0.0461802,-0.005864199999999996,-0.10549340000000003,0.16360819999999998,-0.14935780000000004,0.10906219999999997,,,,,,,,1,0,0,0,0,0
126.0,-0.8532804,-3.1557142,10.5218396,-0.0033596,-0.020188599999999994,0.148955,-1.160092,-1.360969,-0.641365,52.352399,4.921635,6.916550999999999,2.92,323.399994,3.790092,2.5,0,1,0,0,0,0
126.5,-0.4669594000000001,-1.8839890000000001,8.939525600000001,-0.02538825,0.04917325,-0.13759325,-1.160092,-1.360969,-0.641365,,,,,,,,0,1,0,0,0,0
127.0,-0.3612564000000001,-2.3228326000000004,10.258508999999998,0.0454164,0.0158512,0.05784740000000001,-0.5765238,-1.7141452000000001,-0.29693040000000004,52.352411,4.92162,7.002314999999999,0.59,323.700012,3.790092,2.5,0,0,1,0,0,0
127.5,-0.31914279999999995,0.32171459999999996,10.1709918,-0.0025347999999999994,-0.011453199999999998,0.04056020000000001,-0.0892068,0.8532385999999998,0.0354312,,,,,,,,0,0,1,0,0,0
128.0,0.17545360000000004,-0.0363112,10.055597800000001,0.0119116,0.0367424,-0.054792799999999996,-0.27602140000000003,0.248763,0.0856526,52.352414,4.921619000000001,6.844175999999999,0.0,,3.790092,2.5,0,0,1,0,0,0
128.5,-0.6639486,0.5224128000000001,9.713902999999998,0.012293250000000002,0.01794375,0.026304499999999995,-0.5397930000000001,0.371091,0.09092599999999999,,,,,,,,0,0,1,0,0,0
129.0,-0.6322436,1.078924,9.5278606,0.009071,-0.0035124,-0.08182299999999999,-0.5397930000000001,0.371091,0.09092599999999999,52.352415,4.921621,6.823243,0.0,,3.790092,2.5,0,0,1,0,0,0
129.5,0.0368496,0.8665606,10.4971334,0.0102316,-0.10894479999999998,0.3511148,-0.22658779999999998,0.45862220000000004,0.09235020000000001,,,,,,,,0,0,1,0,0,0
130.0,0.36065819999999993,1.6055242,9.366285600000001,-0.015881999999999997,0.103447,-0.09080239999999998,0.6134054,0.5614978,0.07958819999999998,52.352419,4.9216169999999995,6.6792039999999995,0.8,323.0,3.790092,2.5,0,0,1,0,0,0
130.5,-0.4495517999999999,-0.174915,9.7610412,0.0273354,0.0942842,-0.5137225999999999,2.158991,-0.010669,0.39744,,,,,,,,0,0,1,0,0,0
131.0,0.4625922000000001,-2.385405,12.3653296,-0.02187575,0.18313975,-0.5129207499999999,2.158991,-0.010669,0.39744,52.35243,4.921606,6.587783,1.92,327.100006,3.790092,2.5,0,0,0,1,0,0
131.5,-2.2639091999999996,-2.5862822000000003,10.9322684,0.039033200000000004,0.08585479999999998,-0.6278898000000002,1.4041355999999998,0.04413900000000002,0.018698399999999993,,,,,,,,0,0,0,1,0,0
132.0,-0.8020143999999998,-1.3643278,12.088241,0.1371658,0.12403280000000001,-0.5106073999999999,1.5958742000000004,0.06938680000000005,0.2401094,52.352447999999995,4.921597,5.916965,2.06,341.0,3.790092,2.5,0,0,0,1,0,0
132.5,-2.1650259999999997,2.6131418,6.6428348,0.1094028,0.0672542,-0.5245348,2.1876012,-0.6164463999999998,0.20654819999999985,,,,,,,,0,0,0,1,0,0
133.0,-0.9508477999999998,0.8191827999999999,9.4858666,0.13144675,0.06093175000000002,-0.87920025,2.5675529999999998,-0.803005,-0.342559,52.352472,4.921601,5.823557,3.14,6.6,3.790092,2.5,0,0,0,1,0,0
133.5,-1.6973487999999999,-0.9190232,7.8752580000000005,0.08218959999999997,-0.23334380000000002,-0.2504776,2.4422892,-1.099899,0.6106836,,,,,,,,0,0,0,1,0,0
134.0,-1.3033704000000002,0.2528018000000001,16.235301800000002,0.1192986,-0.1869192,0.3495574,-0.08090679999999999,-0.061382200000000164,-0.6653727999999999,52.352497,4.92163,5.353028,3.47,38.0,3.790092,2.5,0,0,0,1,0,0
134.5,-3.3534212000000005,-4.5147775999999995,16.326348799999998,-0.0162178,-0.03701740000000001,-0.177054,0.44228059999999997,-0.5476951999999999,1.0807170000000001,,,,,,,,0,0,0,1,0,0
135.0,-1.9014566000000002,-0.6269794,10.682398,0.017775599999999996,-0.027182999999999995,0.2781186,-0.501101,-1.343807,1.6161819999999998,52.352517,4.921673999999999,5.063836,3.35,52.400002,3.790092,2.5,1,0,0,0,0,0
135.5,-0.9663416,-1.9454846000000003,12.032368599999998,-0.02645725,0.1344625,-0.2406355,-0.501101,-1.343807,1.6161819999999998,,,,,,,,1,0,0,0,0,0
136.0,0.5108676,5.261518199999999,4.5335616000000005,0.086893,-0.0050089999999999996,0.11093000000000001,0.32320680000000007,0.11914140000000004,-0.2127705999999998,52.352534000000006,4.921724,5.0864720000000005,3.71,57.900002,3.790092,2.5,1,0,0,0,0,0
136.5,0.20440679999999994,1.616172,8.4098744,-0.1020726,0.03640659999999999,-0.145565,-0.3627212000000001,-0.9227708,0.37719620000000004,,,,,,,,1,0,0,0,0,0
137.0,-0.5678168000000001,-6.1742002,16.824295199999998,0.0774248,-0.0812732,0.0826782,0.6924079999999999,2.8420844,-5.0189044,52.352553,4.921776,5.022687,4.06,54.0,3.790092,2.5,1,0,0,0,0,0
137.5,1.4411372,-1.2142377999999998,11.662138800000001,0.011682500000000002,0.0979265,-0.134081,0.51598,3.168232,-5.991719,,,,,,,,1,0,0,0,0,0
138.0,0.19399799999999995,-0.9794422,10.870772800000001,-0.03811679999999999,-0.1413196,0.07177439999999999,0.07403340000000003,1.9129346000000003,-3.8739144000000003,52.352575,4.9218269999999995,4.708233,3.94,53.5,3.790092,2.5,1,0,0,0,0,0
138.5,0.8376078,-0.7322038000000001,9.452427,0.07736380000000001,0.0587024,0.09804100000000002,-0.21113380000000004,-0.10496120000000006,0.06268880000000002,,,,,,,,1,0,0,0,0,0
139.0,-1.6390837999999999,-0.6614360000000001,10.0873028,-0.0399492,0.054701200000000005,-0.1024084,-0.5512514,-0.06835639999999998,-0.1595724,52.352596999999996,4.9218779999999995,4.675091,4.08,53.900002,3.790092,2.5,1,0,0,0,0,0
139.5,0.5201998,-0.8439484,9.9683198,0.012560749999999996,-0.08525150000000001,0.07818825,-1.052994,0.219442,-0.499159,,,,,,,,1,0,0,0,0,0
140.0,0.07100719999999998,0.04522439999999994,9.166963200000001,0.03457380000000001,0.050608600000000004,-0.0727826,-1.052994,0.219442,-0.499159,52.35262,4.921930000000001,4.957135,4.16,55.0,3.790092,2.5,1,0,0,0,0,0
140.5,-0.0664008,-0.3804588,10.314620999999999,-0.0064142,-0.047798999999999994,0.051280599999999996,-0.43507580000000007,-0.46622399999999997,0.11903620000000001,,,,,,,,1,0,0,0,0,0
141.0,0.13794640000000008,0.15852460000000015,9.2199646,-0.0320998,0.045935800000000006,0.016126400000000003,-0.6675869999999999,-0.25527479999999997,-0.567629,52.352644,4.921981,5.074386,4.03,53.099998,3.790092,2.5,1,0,0,0,0,0
141.5,-1.0485948,0.21613139999999986,9.584211400000001,0.02715200000000001,-0.0820062,0.09923199999999999,-1.091119,-0.452137,-0.797895,,,,,,,,1,0,0,0,0,0
142.0,-0.25010999999999994,0.5126025999999999,6.3183678,0.01672175,0.1421365,-0.04023949999999999,-1.091119,-0.452137,-0.797895,52.352666,4.922031,4.830123,4.04,54.099998,3.790092,2.5,1,0,0,0,0,0
142.5,0.34624119999999986,-0.3214157999999999,12.5474232,0.003023799999999999,-0.082342,-0.05008959999999999,-0.6220049999999999,-0.3108946,-0.009530200000000022,,,,,,,,1,0,0,0,0,0
143.0,0.2701494000000001,2.5237702,8.574022,-0.010109600000000002,0.0354292,0.0434924,0.07435479999999997,-0.33236599999999994,-0.12399099999999982,52.35269,4.922082,4.964524,4.17,51.900002,3.790092,2.5,1,0,0,0,0,0
143.5,0.11371899999999999,-0.2602194,10.531769800000001,-0.006414199999999992,-0.015118399999999999,0.017806399999999993,-0.707544,-1.599464,0.19963399999999998,,,,,,,,1,0,0,0,0,0
144.0,1.6120448,1.7050656,8.967462,0.04673000000000001,-0.012064,-0.053067500000000004,-0.707544,-1.599464,0.19963399999999998,52.352713,4.92213,4.705368,3.82,52.299999,3.790092,2.5,1,0,0,0,0,0
144.5,0.49962139999999994,-1.2321838,12.755359799999999,-0.062856,-0.0862514,0.2212184,-0.8470808,-1.2375356,0.07065659999999999,,,,,,,,1,0,0,0,0,0
145.0,-1.369951,0.7889735999999999,8.4381096,0.07632520000000001,0.1568046,-0.16633379999999998,0.6023251999999999,0.11582119999999999,-0.18760680000000002,52.352734999999996,4.922174,4.62669,3.69,50.0,3.790092,2.5,1,0,0,0,0,0
145.5,-2.1089144,1.0829916000000002,9.093743,0.0022907999999999982,-0.10020959999999998,0.04529419999999999,-0.38866020000000007,-0.5935159999999999,0.12461259999999996,,,,,,,,1,0,0,0,0,0
146.0,3.1785658000000003,-0.8166706000000005,13.3914916,0.1682885,-0.08826724999999999,0.1440075,-0.639789,-0.857846,-0.9161629999999998,52.352757000000004,4.922217,4.213843,3.48,51.0,3.790092,2.5,1,0,0,0,0,0
146.5,1.0219146000000001,2.8395626000000007,4.0857444,-0.10054539999999998,-0.0982852,0.1515206,-0.639789,-0.857846,-0.9161629999999998,,,,,,,,1,0,0,0,0,0
147.0,-1.3191032,-2.5847868000000003,10.726844400000001,0.027366,-0.11749659999999999,0.5753568,-1.432716,-0.5272585999999999,0.6029252,52.352777,4.922254,4.026758999999999,2.91,49.0,3.790092,2.5,0,0,0,0,1,0
147.5,1.0444071999999998,-2.1733412000000003,10.8733446,0.10381359999999999,0.0120336,0.3755796,-1.526398,0.043755600000000006,0.40417240000000004,,,,,,,,0,0,0,0,1,0
148.0,0.6528217999999999,1.9291531999999996,8.465925799999999,0.07000300000000001,0.03885000000000001,0.3770456,-0.7464069999999999,0.9551209999999999,-0.371816,52.3528,4.922283999999999,3.285658,3.21,38.599998,3.790092,2.5,0,0,0,0,1,0
148.5,1.5139988,-1.5808186000000002,11.7579116,0.042339249999999995,0.09765924999999999,0.19253125,-0.7464069999999999,0.9551209999999999,-0.371816,,,,,,,,0,0,0,0,1,0
149.0,1.2147166,0.15978060000000002,11.1557582,0.0236704,-0.08793139999999999,0.1803832,-0.7600084,0.6024432,-0.39574259999999994,52.35283,4.9223,4.263065,3.46,15.6,3.790092,2.5,0,0,0,0,1,0
149.5,-2.2846071999999995,-2.5076185999999994,8.567322,0.08670960000000001,0.0816704,0.5132646,-0.9265270000000001,-0.8000727999999999,-0.17460760000000003,,,,,,,,0,0,0,0,1,0
150.0,0.15972099999999986,4.2045482000000005,6.105466399999999,-0.16621160000000001,0.1672502,-0.006077800000000006,0.9155285999999998,-0.592871,0.3791244000000001,52.352865,4.922295,4.268545,4.0,353.100006,3.790092,2.5,0,0,0,0,1,0
150.5,-1.8404994,-0.7618747999999999,8.3769126,0.257816,0.0545565,0.032603999999999994,1.5488389999999999,-0.553357,1.279362,,,,,,,,0,0,0,0,1,0
151.0,0.5784648,-0.7353144,8.9945608,0.005497600000000003,0.078555,-0.055526000000000006,1.4973168,-0.3247074,1.2140376,52.3529,4.922274,4.606839,3.65,338.799988,3.790092,2.5,1,0,0,0,0,0
151.5,-1.3064212000000002,0.04103700000000001,9.3428358,-0.016034599999999993,0.0235178,-0.1306908,0.2839494,-0.3647984,-0.1870942,,,,,,,,1,0,0,0,0,0
152.0,-1.1902497999999997,-2.412084599999999,13.631851000000001,-0.010781200000000005,-0.184079,0.0795932,0.2251878,-0.7349576000000001,1.2895754,52.352931,4.922246,4.357782,3.67,334.100006,3.790092,2.5,1,0,0,0,0,0
152.5,0.3515058000000001,1.1673982000000003,8.7337426,0.015057199999999998,0.1133732,0.09425380000000001,0.129347,-1.0157690000000001,2.447816,,,,,,,,1,0,0,0,0,0
153.0,-0.16564300000000012,-0.6454636,10.8665852,0.001832750000000001,-0.015767499999999997,-0.11365600000000001,0.129347,-1.0157690000000001,2.447816,52.352962,4.9222150000000005,4.270589,3.9,332.399994,3.790092,2.5,1,0,0,0,0,0
153.5,-0.6026924000000001,-0.8491528000000004,11.286884600000002,-0.0110564,-0.10705100000000001,0.25334899999999994,-0.4353542,-0.4850854,0.07257340000000002,,,,,,,,1,0,0,0,0,0
154.0,2.3047665999999998,-1.6258034000000006,8.4390666,-0.0332606,0.11132699999999998,-0.09819359999999998,0.5039326,-1.0268062,0.5769770000000001,52.352993,4.922181,3.8367150000000003,3.88,330.399994,3.790092,2.5,1,0,0,0,0,0
154.5,0.8721837999999998,3.8400616,12.1759982,0.15762899999999996,-0.004092999999999999,-0.0688426,0.17095219999999997,0.2041966,-0.1578850000000002,,,,,,,,1,0,0,0,0,0
155.0,-0.7576871999999999,-0.5373681999999997,6.4884374000000005,-0.2309385,-0.044439000000000006,0.1135795,0.24984699999999999,1.506066,-1.495408,52.353021999999996,4.922149,4.048469,3.64,331.700012,3.790092,2.5,1,0,0,0,0,0
155.5,0.13758739999999997,-5.3727842,20.3595708,0.1578428,0.0683232,-0.0456302,0.1378702,-0.051213000000000085,0.379374,,,,,,,,1,0,0,0,0,0
156.0,-0.9056234000000002,0.3111865999999999,7.765367800000002,-0.05207459999999999,-0.0743096,-0.012705600000000001,-0.2236338,0.7060001999999999,-1.2083588,52.353051,4.922119,3.8050230000000003,3.65,331.899994,3.790092,2.5,1,0,0,0,0,0
156.5,1.0546962,-1.8839292,12.598749600000001,0.015637799999999997,-0.0367118,0.162974,0.4801572,0.007471600000000067,-0.07909599999999994,,,,,,,,1,0,0,0,0,0
157.0,0.4443472,-1.6389039999999997,13.417454000000001,0.02057775,0.17489325,-0.14190775,1.165073,0.481918,-0.45805799999999997,52.353079,4.922089,3.969841,3.66,333.100006,3.790092,2.5,1,0,0,0,0,0
157.5,0.4083352000000001,0.8554938,9.0168734,-0.012797399999999997,-0.051036000000000005,-0.11053300000000002,1.165073,0.481918,-0.45805799999999997,,,,,,,,1,0,0,0,0,0
158.0,-0.8455636,-1.3912468,11.1654488,0.014812999999999998,-0.010872799999999998,0.1557966,-0.2213864,-0.1715216,-0.07514979999999997,52.353108,4.922059,3.873185,3.75,331.899994,3.790092,2.5,1,0,0,0,0,0
158.5,-1.9843078000000003,1.0602598,7.5011998,-0.0550678,-0.021227000000000006,-0.0546098,0.06640839999999999,-0.33831939999999994,0.30035940000000005,,,,,,,,1,0,0,0,0,0
159.0,0.8238488,0.1316052000000001,10.7639334,0.0502422,-0.060779400000000004,0.21963,0.8480399999999999,0.129867,-0.27026100000000003,52.353137,4.922029,3.904458,3.73,331.399994,3.790092,2.5,1,0,0,0,0,0
159.5,0.8575877999999998,0.7922636,8.597591,-0.02439575,0.15893474999999999,-0.10632575,0.8480399999999999,0.129867,-0.27026100000000003,,,,,,,,1,0,0,0,0,0
160.0,-0.10289159999999989,-3.8136808,13.861860400000001,0.0623674,-0.048898399999999995,-0.08603779999999998,0.23546460000000002,-0.010978200000000009,-0.1872852,52.353165000000004,4.922,3.9542870000000003,3.77,331.600006,3.790092,2.5,1,0,0,0,0,0
160.5,2.223351,2.5573892000000003,9.420602200000001,-0.0334438,0.042698200000000006,-0.0034818000000000015,0.5239178000000001,-0.17979700000000004,-0.2941594,,,,,,,,1,0,0,0,0,0
161.0,-0.6563514,1.6107884000000001,9.177073400000001,0.024952999999999996,-0.013713599999999998,-0.0939788,0.332572,1.165346,-0.573922,52.353194,4.921971,4.139918,3.67,330.700012,3.790092,2.5,1,0,0,0,0,0
161.5,0.9190236,-0.19399800000000003,10.3365752,0.008819,-0.03840725,0.072958,0.332572,1.165346,-0.573922,,,,,,,,1,0,0,0,0,0
162.0,-1.6693525999999999,1.2042480000000002,8.013742400000002,-0.023578600000000005,0.030053599999999996,-0.027182599999999994,0.2113476,1.0712118,-0.760569,52.353221000000005,4.921941,4.165451999999999,3.58,329.299988,3.790092,2.5,1,0,0,0,0,0
162.5,0.1393219999999999,-1.1699706000000003,10.8991874,0.010353800000000002,0.018173,-0.12110019999999999,0.771787,-0.1859976,0.2046210000000001,,,,,,,,1,0,0,0,0,0
163.0,-0.7210772,2.6794232,5.831608,-0.027793599999999995,-0.058030399999999996,0.075348,-0.438288,-0.1661186,-0.2712524000000001,52.353249,4.921913,4.083811,3.84,332.600006,3.790092,2.5,1,0,0,0,0,0
163.5,0.5239086000000001,-1.1876776000000002,12.4137844,0.0255944,-0.058397199999999996,0.007971399999999998,-1.440669,-0.184604,-1.038261,,,,,,,,1,0,0,0,0,0
164.0,-0.09421739999999997,-0.05359919999999958,8.9612404,-0.033443999999999995,-0.0174475,0.2818295,-1.440669,-0.184604,-1.038261,52.353278,4.921886,4.244969,3.77,332.899994,3.790092,2.5,1,0,0,0,0,0
164.5,0.7055235999999997,1.7148164000000001,10.719426799999999,0.0517082,0.14397659999999995,-0.1859114,0.116048,0.524316,-0.7201554000000001,,,,,,,,1,0,0,0,0,0
165.0,1.3617553999999998,3.299822,7.480142600000001,-0.05012,-0.060748800000000006,-0.043431399999999995,0.5217280000000001,-0.7680014,0.5255018,52.353308,4.92186,4.067324,3.92,335.399994,3.790092,2.5,1,0,0,0,0,0
165.5,-0.8539986,-1.7899505999999998,13.643336399999999,-0.0034820000000000016,0.028801600000000004,0.00836839999999999,1.370585,-2.699528,2.2562130000000002,,,,,,,,1,0,0,0,0,0
166.0,2.5575086,-5.927380599999999,13.112009999999998,0.20379400000000003,-0.004886750000000003,-0.06631524999999999,1.370585,-2.699528,2.2562130000000002,52.353339,4.921834,4.120757,3.82,333.700012,3.790092,2.5,1,0,0,0,0,0
166.5,-0.40366919999999995,0.2010568000000001,9.096674199999999,-0.2128498,-0.0419652,0.0487152,0.8842561999999999,-1.4652611999999998,0.8825712000000001,,,,,,,,1,0,0,0,0,0
167.0,-0.8734999999999999,-2.4520449999999996,13.419787200000002,0.1343866,-0.035520600000000006,-0.0170732,0.0362706,0.1463746,0.09472979999999999,52.353367,4.921809,4.145564,3.64,333.899994,3.790092,2.5,1,0,0,0,0,0
167.5,0.021954199999999792,0.41114680000000003,7.306005399999999,-0.038422399999999995,0.021532000000000003,0.18007779999999998,-1.6585498,-0.8022534,-0.19221520000000003,,,,,,,,1,0,0,0,0,0
168.0,0.057308000000000095,-0.0705283999999999,9.5423972,0.03737625,0.15504075,-0.2955355,-1.62056,-1.043519,-0.3012,52.353396000000004,4.9217830000000005,4.117636,3.72,332.600006,3.790092,2.5,1,0,0,0,0,0
168.5,0.15427700000000014,-1.8019150000000004,12.453206599999998,0.0462716,-0.10039279999999999,0.067407,-1.62056,-1.043519,-0.3012,,,,,,,,1,0,0,0,0,0
169.0,0.12317059999999999,2.49374,6.6239913999999995,-0.0673154,-0.006291800000000005,0.07806640000000001,0.31220919999999996,0.3631516,-0.2695872,52.353424,4.921755,4.304854,3.62,331.399994,3.790092,2.5,1,0,0,0,0,0
169.5,-0.18287139999999996,-1.9745570000000001,13.994961600000002,0.2683452,0.1399452,-0.179009,0.5901102,0.41805900000000007,0.3092518000000001,,,,,,,,1,0,0,0,0,0
170.0,-0.16731819999999997,-1.6876578000000002,9.988120400000001,-0.27042200000000005,0.0458746,-0.1160304,0.9732870000000002,1.358737,0.8722200000000001,52.353451,4.921727,4.639777,3.52,330.700012,3.790092,2.5,0,0,0,1,0,0
170.5,-0.47383880000000006,6.6430142000000005,3.0305695999999998,0.18535374999999998,0.23147275,-0.53972175,0.9732870000000002,1.358737,0.8722200000000001,,,,,,,,0,0,0,1,0,0
171.0,1.1918650000000002,-0.9298507999999996,11.8208432,0.09052760000000001,0.02553360000000001,-0.7103544,2.0029072,-0.0918689999999999,0.6086058000000001,52.353482,4.921708,4.676735,3.73,340.5,3.790092,2.5,0,0,0,1,0,0
171.5,-0.9601798,-2.3111675999999997,10.877173799999998,0.047646400000000005,-0.09263520000000001,-0.0758366,0.7174338,0.14692099999999994,-0.10140780000000005,,,,,,,,0,0,0,1,0,0
172.0,0.4357928000000001,1.7822342000000007,9.4016996,0.0995068,0.11877919999999997,-0.5781059999999999,2.399511,-1.2205549999999998,2.2829,52.353513,4.921705,4.653523000000001,3.31,358.899994,3.790092,2.5,0,0,0,1,0,0
172.5,-1.6963318,0.46612199999999965,9.507820800000001,0.08246424999999999,-0.06761325,-0.57778475,2.399511,-1.2205549999999998,2.2829,,,,,,,,0,0,0,1,0,0
173.0,-0.03948160000000014,0.4353744000000005,9.659167400000001,-0.053143800000000005,-0.14587019999999998,-0.271888,1.4923491999999998,-0.7259575999999999,1.1191032000000005,52.353543,4.921727,4.519362,3.71,26.4,3.790092,2.5,0,0,0,1,0,0
173.5,-0.7122836000000001,0.7258030000000001,10.7455686,0.19314979999999998,-0.10405800000000001,-0.1363412,-0.03923639999999997,0.28946059999999996,0.31270880000000006,,,,,,,,0,0,0,1,0,0
174.0,-1.0644472,-1.1133804,11.1733452,-0.014415999999999995,-0.1299578,0.017500599999999998,0.4985238000000001,0.1614408000000001,-1.9749050000000004,52.353567,4.9217699999999995,3.908643,3.56,50.0,3.790092,2.5,0,0,0,1,0,0
174.5,-0.23575300000000016,-1.4866006,11.812647799999999,-0.02401425,0.054862,-0.04512625,0.7477060000000001,1.150068,-3.1958990000000003,,,,,,,,0,0,0,1,0,0
175.0,-1.323889,1.5136397999999998,6.851249399999999,0.029718000000000005,-0.0518608,-0.11997019999999999,0.7477060000000001,1.150068,-3.1958990000000003,52.353584000000005,4.921824,4.185004,3.71,61.599998,3.790092,2.5,1,0,0,0,0,0
175.5,1.5980466,-1.1589638,10.6480008,-0.0098958,-0.0441338,0.14971839999999997,-0.39879760000000003,-0.9649036000000001,1.0031919999999999,,,,,,,,1,0,0,0,0,0
176.0,0.7338188000000001,-4.2463034,14.912848599999998,0.0682926,0.025685999999999994,0.00250439999999999,-0.9842324000000001,0.15173159999999997,-1.0327496,52.353598,4.921881,3.9580050000000004,3.58,66.099998,3.790092,2.5,1,0,0,0,0,0
176.5,0.45918279999999995,3.0810584000000003,5.260082199999999,-0.06139019999999999,-0.0322832,0.004367399999999999,-1.566681,0.9957650000000001,-0.20793499999999998,,,,,,,,1,0,0,0,0,0
177.0,0.8603394,1.1779866000000003,8.5129452,-0.004428499999999988,0.08250225,0.07116375,-1.566681,0.9957650000000001,-0.20793499999999998,52.353612,4.9219349999999995,3.997607,3.64,63.400002,3.790092,2.5,1,0,0,0,0,0
177.5,-0.7868798,1.7366510000000002,5.967400400000001,-0.0007024000000000058,0.03252759999999999,-0.18786640000000002,-0.41737979999999997,0.23593100000000003,-0.22777940000000002,,,,,,,,1,0,0,0,0,0
178.0,0.5346164,-1.3419545999999998,11.735359400000002,0.030511800000000006,0.007208200000000003,0.030908800000000004,-0.7648953999999999,-0.32480659999999995,-0.07823260000000001,52.353627,4.921989,3.8427519999999995,3.66,63.0,3.790092,2.5,1,0,0,0,0,0
178.5,-0.01196400000000004,2.9114072,4.5162134,-0.0337494,-0.1232386,0.059282599999999984,0.8350620000000001,-1.8563470000000002,2.565053,,,,,,,,1,0,0,0,0,0
179.0,-0.14057839999999994,0.9047862000000002,10.5177114,0.1142285,0.05482375,0.009697250000000001,0.8350620000000001,-1.8563470000000002,2.565053,52.353642,4.922041,4.066315,3.58,63.0,3.790092,2.5,1,0,0,0,0,0
179.5,-1.6560724,-0.9733403999999999,7.4298936,-0.007391399999999992,0.10402719999999999,-0.014049599999999995,0.6131384000000001,-2.0021824,2.6157953999999997,,,,,,,,1,0,0,0,0,0
180.0,-1.9867608,0.7653443999999999,7.754300400000001,-0.0006720000000000004,-0.11007439999999999,-0.11480900000000001,-0.3885224,-0.26968120000000007,-0.6263340000000002,52.353657,4.922093,4.226889,3.63,63.700001,3.790092,2.5,1,0,0,0,0,0
180.5,0.32422760000000006,0.02931200000000018,10.492767,0.015332400000000001,-0.097369,0.2572888,-0.6626074,-0.617612,1.302394,,,,,,,,1,0,0,0,0,0
181.0,1.6824536,-4.747838400000001,17.4944648,-0.09452859999999996,0.12308559999999999,-0.10876140000000001,-1.562238,-1.245541,3.2654989999999997,52.353674,4.922147,4.683486,3.95,63.5,3.790092,2.5,1,0,0,0,0,0
181.5,-1.6640884,1.39693,10.006306,0.0659335,-0.006986499999999999,0.0087425,-1.562238,-1.245541,3.2654989999999997,,,,,,,,1,0,0,0,0,0
182.0,-0.4421338,0.09864420000000003,11.080982200000001,-0.007666200000000003,0.033566200000000004,-0.0251058,-0.1863282,-0.39209640000000007,0.49293339999999997,52.353691,4.9222,4.324044000000001,3.8,61.599998,3.790092,2.5,1,0,0,0,0,0
182.5,-0.19974079999999997,-2.1004193999999994,10.233863200000002,0.06181760000000001,0.027152199999999994,0.026083199999999994,-0.444678,-0.5584762,0.317171,,,,,,,,1,0,0,0,0,0
183.0,0.48095740000000003,-0.7875977999999997,6.8854668000000006,-0.10424100000000003,0.04868459999999998,-0.2654438,0.8854179999999999,-0.008833,-0.373336,52.353709,4.9222529999999995,4.607486,3.89,61.0,3.790092,2.5,1,0,0,0,0,0
183.5,-0.008733999999999909,0.1594219999999999,10.813704,0.04249224999999998,-0.103882,0.11483924999999998,0.8854179999999999,-0.008833,-0.373336,,,,,,,,1,0,0,0,0,0
184.0,1.1691331999999999,-0.4834102000000001,9.6709516,0.0889698,-0.0741264,0.06496379999999999,0.2167558,-0.6002814,0.15006940000000005,52.353726,4.922306,4.520137999999999,3.82,63.400002,3.790092,2.5,1,0,0,0,0,0
184.5,0.6707680000000001,0.17916279999999976,10.905707999999999,-0.0530216,0.012644399999999995,-0.010842600000000013,0.2956824,0.0685066,-0.33493580000000006,,,,,,,,1,0,0,0,0,0
185.0,0.07549360000000005,3.2614171999999995,5.0349775999999995,0.057297399999999984,-0.0536934,0.1113882,-0.30324399999999996,-0.07948679999999994,-0.06688980000000015,52.353742,4.92236,4.114369,3.81,65.199997,3.790092,2.5,1,0,0,0,0,0
185.5,0.8300103999999999,-2.2112071999999996,13.7890592,-0.05986300000000003,0.07280525,0.19188225000000003,1.526957,-0.29619,0.006059,,,,,,,,1,0,0,0,0,0
186.0,-2.1900307999999997,-1.1973683999999998,8.0112898,0.027090999999999997,0.06795659999999999,-0.16178299999999998,1.526957,-0.29619,0.006059,52.353759000000004,4.922413,4.544783,3.85,63.799999,3.790092,2.5,1,0,0,0,0,0
186.5,1.9159928000000002,0.6837487999999997,11.0015408,0.008307599999999988,-0.0649942,0.1592478,-0.6190944,-0.06676899999999994,-0.13050819999999996,,,,,,,,1,0,0,0,0,0
187.0,0.12915300000000016,2.4314668,6.479284799999999,-0.01640120000000001,0.10127840000000002,-0.1726864,1.3016912,-0.16750359999999992,0.2153932,52.353776,4.922461,4.514683,3.4,62.5,3.790092,2.5,1,0,0,0,0,0
187.5,-0.04797599999999993,0.48245279999999974,7.2022768,-0.0830142,-0.02858759999999999,-0.050089800000000004,1.57507,0.58262,-0.304885,,,,,,,,1,0,0,0,0,0
188.0,-0.1908276,1.0914855999999997,6.244549400000001,0.25334900000000005,-0.02218125,-0.005268749999999999,1.57507,0.58262,-0.304885,52.353795,4.922511,4.388946,4.13,60.0,3.790092,2.5,1,0,0,0,0,0
188.5,0.5948556,1.9206580000000002,4.449992399999999,-0.1358524,-0.09617800000000001,0.0766918,0.10955220000000003,-0.714449,-1.0624993999999996,,,,,,,,1,0,0,0,0,0
189.0,-1.8632909999999998,-2.3892932,13.209697000000002,-0.08588499999999999,0.0241896,-0.1911342,0.5059973999999999,-0.01783260000000002,-0.8694317999999999,52.353815999999995,4.922562999999999,4.577116,3.85,62.400002,3.790092,2.5,1,0,0,0,0,0
189.5,2.4531218,-8.243394,10.997173400000001,0.014019000000000049,-0.09999580000000001,0.24281180000000005,-2.519592,0.257686,-0.457912,,,,,,,,1,0,0,0,0,0
190.0,-1.7794225999999995,1.5212966,4.7672805999999985,0.06761325,-0.319664,0.34352525,-2.519592,0.257686,-0.457912,52.353834,4.922611,4.869466,3.41,60.700001,3.790092,2.5,0,0,0,0,1,0
190.5,0.12825499999999984,1.2451650000000005,5.7991254,0.10439379999999998,0.02360919999999999,0.4515994,-2.2186692,0.53508,-0.7448112,,,,,,,,0,0,0,0,1,0
191.0,2.3540588,-0.8470592000000001,10.251988800000001,0.08396099999999998,-0.05384599999999999,0.41165019999999997,-1.4904191999999998,-0.1294828,0.37446260000000003,52.353854999999996,4.922651,4.392529,3.57,53.599998,3.790092,2.5,0,0,0,0,1,0
191.5,0.20327040000000007,0.11509480000000014,7.2327252,0.05971,0.14287699999999998,0.3491296,-0.3723582,-0.5985246,0.9555836,,,,,,,,0,0,0,0,1,0
192.0,3.095834,-1.4417954,10.716555399999999,-0.027373500000000002,0.159011,-0.34245624999999996,0.6296039999999999,-0.848733,1.514408,52.353871000000005,4.9226730000000005,3.5085319999999998,1.12,46.5,3.790092,2.5,0,0,0,0,1,0
192.5,1.1720642,3.1360333999999996,5.666324,0.0978272,-0.308661,0.5305208,0.6296039999999999,-0.848733,1.514408,,,,,,,,0,0,0,0,1,0
193.0,-0.8815158000000001,-6.4218574,15.206686999999999,-0.04224,0.0239148,0.3482134,-1.2212818,-0.19420420000000008,0.17338879999999984,52.3539,4.922686,4.921606,4.7,20.200001,3.790092,2.5,0,0,0,0,1,0
193.5,1.6036100000000002,2.5098318,1.4007581999999996,-0.1259874,0.0654522,0.1132204,-0.6081597999999999,0.716921,-2.2052463999999996,,,,,,,,0,0,0,0,1,0
194.0,1.542533,-1.2092728,11.4876426,0.22998420000000003,-0.1246434,0.5045293999999999,-0.603827,1.9905810000000002,-2.936587,52.353941,4.922694,4.2594970000000005,3.8,6.9,3.790092,2.5,0,0,0,0,1,0
194.5,2.9001606,-1.0571490000000003,6.6684377999999995,0.10632575,0.19917424999999997,0.009735500000000005,-0.603827,1.9905810000000002,-2.936587,,,,,,,,0,0,0,0,1,0
195.0,0.3275175999999999,-1.6656437999999998,9.8188876,-0.011392199999999998,0.090833,0.11352600000000002,-0.2953961999999999,0.7705408,-1.1822768,52.353978000000005,4.922682,3.970908,4.19,353.799988,3.790092,2.5,1,0,0,0,0,0
195.5,-0.4850849999999999,-2.5297518,13.345429999999999,0.014812999999999993,0.1355472,-0.09507860000000001,0.0657324,-0.5453698,0.07182099999999995,,,,,,,,1,0,0,0,0,0
196.0,-0.6056829999999997,2.6195427999999996,6.985486799999999,0.0363148,-0.11627460000000003,0.2123304,-0.9340865999999999,-0.25572,-0.2077184,52.354014,4.922656,4.053647,4.14,339.399994,3.790092,2.5,1,0,0,0,0,0
196.5,-1.9599612,-7.768418,19.5377556,0.04337,0.0243955,-0.031267750000000004,-1.4074799999999998,-0.614282,-0.221394,,,,,,,,1,0,0,0,0,0
197.0,-0.6357131999999999,1.8844678000000006,1.824707,-0.007605000000000001,0.0410186,0.012766599999999994,-1.0627909999999998,-0.062098600000000025,-0.16770800000000002,52.354046000000004,4.922619999999999,3.73403,4.13,329.200012,3.790092,2.5,1,0,0,0,0,0
197.5,1.5410978,-2.4757936000000003,12.417792200000001,-0.009162800000000016,-0.030939199999999993,0.002748800000000007,0.2425186,-1.0863896,0.4024008,,,,,,,,1,0,0,0,0,0
198.0,1.3076776,-0.6000002,10.242537,-0.02217380000000001,0.049661800000000006,0.009681799999999996,0.12550319999999998,-0.186537,-1.4235944000000003,52.354075,4.922581,3.5555830000000004,3.97,329.0,3.790092,2.5,1,0,0,0,0,0
198.5,1.4295916,-0.9379864000000001,11.3642922,-0.018844600000000006,0.013774600000000001,-0.017744999999999997,0.816908,-0.15328599999999998,-1.8521709999999998,,,,,,,,1,0,0,0,0,0
199.0,0.7046264000000001,2.3066212,6.164629,0.0721945,0.01767625,-0.004046750000000009,0.816908,-0.15328599999999998,-1.8521709999999998,52.354103,4.9225449999999995,3.645567,3.76,329.0,3.790092,2.5,1,0,0,0,0,0
199.5,-0.15631099999999995,0.6936791999999997,10.5156182,-0.04052980000000001,-0.041934799999999994,-0.020952200000000004,0.10219999999999999,-0.6186757999999999,-0.24312019999999995,,,,,,,,1,0,0,0,0,0
200.0,0.502373,-0.070289,9.1450694,-0.0005498000000000031,0.10335540000000001,-0.0879926,0.33441719999999997,0.03367679999999997,-0.5480250000000001,52.354131,4.922511,3.230609,3.78,329.799988,3.790092,2.5,1,0,0,0,0,0
200.5,0.8885746000000001,-0.6954138000000003,9.838808,-0.0436144,0.05045599999999999,-0.27020839999999996,0.0924516,0.2895788,-1.2000948,,,,,,,,1,0,0,0,0,0
201.0,-0.7400402,-2.6575884,14.1910538,0.07624124999999998,-0.1397315,0.032565750000000004,0.064899,0.182161,-0.8753540000000001,52.354159,4.922479,3.4112339999999994,3.8,332.100006,3.790092,2.5,1,0,0,0,0,0
201.5,2.0413768,0.45583280000000004,6.8556166,-0.010598199999999999,-0.014935200000000001,-0.09113840000000001,0.15722560000000002,0.47290100000000007,-1.0512008000000002,,,,,,,,1,0,0,0,0,0
202.0,0.6483954,-0.08608159999999962,10.775957,-0.0032069999999999933,-0.11251799999999998,0.055189999999999996,-0.46371339999999994,-0.8215957999999999,0.08193299999999996,52.354186,4.922447,3.465269,3.45,330.600006,3.790092,2.5,1,0,0,0,0,0
202.5,-0.5306084,-2.1828526000000004,12.6443326,0.0496008,-0.1675248,0.38229879999999994,-0.31438239999999995,-1.5576060000000003,1.5161434000000003,,,,,,,,1,0,0,0,0,0
203.0,0.618186,5.274379400000001,2.2491334000000003,0.11262499999999998,0.1564915,-0.017638249999999994,-0.583838,-1.58802,1.714659,52.354212,4.922417,3.81972,3.39,332.700012,3.790092,2.5,1,0,0,0,0,0
203.5,-0.5967102000000001,1.8771094000000008,2.8306492000000008,-0.009773599999999983,-0.1148392,0.344182,-0.583838,-1.58802,1.714659,,,,,,,,1,0,0,0,0,0
204.0,0.9568898000000001,0.5398207999999999,9.100024399999999,0.051402799999999985,-0.0707054,0.3649508,-1.1130128000000001,-0.7605398000000001,-0.6648972000000001,52.354234000000005,4.922388,4.208163,2.88,326.399994,3.790092,2.5,1,0,0,0,0,0
204.5,-0.5369496,-0.26057840000000054,10.455857,0.0572364,-0.0627036,0.45584480000000005,-0.5358008,0.7378439999999999,-0.7580408000000001,,,,,,,,1,0,0,0,0,0
205.0,0.04600200000000003,0.7418948000000001,8.292745799999999,0.06890339999999999,0.04025479999999999,0.4033732,-1.8708369999999999,0.449824,-0.085511,52.354251,4.922358,3.7678,2.53,318.700012,3.790092,2.5,0,0,0,0,1,0
205.5,0.9501303999999999,1.3804794,7.480562000000001,0.041118,0.10216425,0.22398999999999997,-1.8708369999999999,0.449824,-0.085511,,,,,,,,0,0,0,0,1,0
206.0,1.057508,-1.1064413999999998,11.031331,0.0647804,-0.07046099999999998,0.3433572,-0.9515642,0.5703866,-0.5099986000000001,52.354261,4.92232,3.892548,2.78,295.899994,3.790092,2.5,0,0,0,0,1,0
206.5,0.9421142000000001,-0.12969100000000006,10.747422600000002,0.028801399999999998,0.07748600000000001,0.2992236,-0.32707480000000005,0.3563406,-0.20923479999999994,,,,,,,,0,0,0,0,1,0
207.0,-0.21302120000000002,1.0125228,8.658069600000001,-0.017500800000000004,0.025288999999999996,0.2082992,-1.4671299999999998,0.026302,1.572114,52.354262,4.922274,3.964728,3.22,272.899994,3.790092,2.5,0,0,0,0,1,0
207.5,-0.49280179999999996,0.6515657999999999,8.2056468,0.078112,-0.005421249999999997,0.10029325,-1.4671299999999998,0.026302,1.572114,,,,,,,,0,0,0,0,1,0
208.0,-1.1728422,0.6723234,8.1151384,0.010934000000000008,0.1170688,0.06569680000000001,-1.0125638,0.12746180000000001,1.1942144000000001,52.354259000000006,4.92223,3.956947,2.47,265.200012,3.790092,2.5,0,0,0,0,1,0
208.5,0.534078,-2.8529026,12.743156399999998,-0.0196388,0.0743098,-0.06355859999999999,0.24306600000000006,-0.0766438,0.07383899999999999,,,,,,,,0,0,0,0,1,0
209.0,1.1715858000000001,-4.055535,16.2680836,-0.148894,-0.07656959999999999,0.165845,-0.12925820000000002,-1.0826784,1.6743426,52.354251,4.922194999999999,2.413275,2.54,253.899994,3.790092,2.5,0,0,0,0,1,0
209.5,0.7061819999999999,-3.8099718000000005,15.442559600000001,0.2135218,-0.0432174,0.12149760000000001,-0.555725,-2.1019360000000002,4.129492,,,,,,,,0,0,0,0,1,0
210.0,0.5864209999999999,-1.1951550000000002,10.462018599999999,-0.04123225,0.16111099999999998,-0.092276,-0.555725,-2.1019360000000002,4.129492,52.354246,4.92216,3.412576,2.82,261.700012,3.790092,2.5,0,0,0,0,1,0
210.5,1.8064016000000003,4.1030926,6.1451872000000005,0.012675000000000002,-0.0250448,-0.16205779999999997,-0.03743100000000001,-0.10979200000000007,0.42085820000000007,,,,,,,,0,0,0,0,1,0
211.0,0.00843480000000003,-2.9347374,14.397614,-0.046943399999999996,-0.07510359999999998,0.1803832,-0.05734639999999998,-0.15702339999999995,-0.08218919999999996,52.354234000000005,4.922117,3.252806,3.94,248.69999700000002,3.790092,2.5,1,0,0,0,0,0
211.5,-0.1529011999999999,-1.3063616,11.2008628,0.016157,0.15213159999999998,-0.109586,0.243819,-0.091033,0.636115,,,,,,,,1,0,0,0,0,0
212.0,0.7231110000000001,1.1388042,7.784210999999999,0.003283250000000001,-0.0938795,-0.04665325000000001,0.243819,-0.091033,0.636115,52.354219,4.922073,3.187024,3.55,247.0,3.790092,2.5,1,0,0,0,0,0
212.5,-0.11485560000000006,0.9457029999999997,8.505467800000002,0.027946400000000003,-0.062153400000000004,0.0415986,0.2688926,0.14611820000000003,0.16572500000000004,,,,,,,,1,0,0,0,0,0
213.0,0.3857826000000001,-0.18903299999999998,11.728300999999998,-0.013285799999999997,-0.032436,0.1167328,-0.3514593999999999,-0.4007223999999999,0.30650700000000003,52.354203999999996,4.922032,3.445524,3.43,239.399994,3.790092,2.5,1,0,0,0,0,0
213.5,0.9188440000000002,1.5947565999999995,6.124130200000001,0.01398839999999999,0.0333218,0.0109648,0.3060187999999999,0.4097748,-1.3008064000000001,,,,,,,,1,0,0,0,0,0
214.0,-1.6983658000000001,-2.9825336000000005,13.252229599999998,0.021723250000000013,0.046233250000000004,0.03943799999999999,0.5916859999999999,0.500591,-1.7146979999999998,52.354188,4.921991,3.385175,3.61,240.399994,3.790092,2.5,1,0,0,0,0,0
214.5,-0.8665608,1.7835500000000004,7.095317400000001,-0.0083992,0.015210199999999998,-0.03402419999999999,0.49144319999999997,0.3570196,-1.2730018,,,,,,,,1,0,0,0,0,0
215.0,0.605683,-0.8645269999999996,10.957692,-0.008491000000000004,0.029351000000000006,-0.15375,0.3012538,-0.43972999999999995,0.5182732,52.354171,4.921948,3.0673169999999996,3.66,239.100006,3.790092,2.5,1,0,0,0,0,0
215.5,0.47736799999999996,-1.9776682,12.340923,0.0290458,-0.056289599999999995,0.08170059999999998,0.043879799999999934,0.1765918,-0.4469023999999999,,,,,,,,1,0,0,0,0,0
216.0,-0.16181460000000003,0.04665999999999988,10.193365,0.009376400000000007,-0.063925,0.06664320000000001,-0.878698,-0.696014,0.23200300000000001,52.354156,4.921907,3.82252,3.41,239.100006,3.790092,2.5,1,0,0,0,0,0
216.5,0.6929616000000001,-0.6865608000000001,9.807163,-0.06177200000000001,0.10243125,0.0014887500000000022,-0.878698,-0.696014,0.23200300000000001,,,,,,,,1,0,0,0,0,0
217.0,-0.23988040000000002,-1.328256,11.171670600000002,0.011881000000000006,0.107662,-0.1649286,0.18300520000000003,-0.04349979999999996,-0.15626159999999994,52.35414,4.921865,3.57455,3.47,239.19999700000002,3.790092,2.5,1,0,0,0,0,0
217.5,0.13441680000000003,1.6117453999999998,7.606364599999999,0.030725399999999996,-0.1397006,-0.06215360000000001,-0.00424500000000001,0.128652,0.0778106,,,,,,,,1,0,0,0,0,0
218.0,0.3919444000000001,0.6862016,8.213304,0.046088199999999996,-0.03988819999999999,0.17836719999999998,-0.1547012,-0.5402836,1.0726934,52.354128,4.921821,4.059674,3.54,245.80000299999998,3.790092,2.5,1,0,0,0,0,0
218.5,-1.5927226,-1.7685949999999995,10.6685792,-0.051464,0.037567249999999996,-0.006604999999999996,-0.098491,-0.7686149999999999,1.151225,,,,,,,,1,0,0,0,0,0
219.0,1.1513664000000001,2.6779273999999997,5.3671012000000005,-0.0193944,-0.027640600000000008,0.0787076,-0.08275859999999999,-0.4337711999999999,0.46984239999999994,52.354115,4.921774,4.1015,3.69,243.19999700000002,3.790092,2.5,1,0,0,0,0,0
219.5,0.28378879999999995,0.6942176000000002,8.9013004,0.033566,0.0774252,-0.013468999999999998,-0.10006540000000001,0.029689600000000028,0.026279200000000023,,,,,,,,1,0,0,0,0,0
220.0,-0.5961117999999999,-0.08177499999999985,9.396794400000001,-0.004458999999999996,-0.0164014,-0.1095552,0.8356068000000001,1.1120801999999999,-0.7952557999999998,52.3541,4.921727,4.128123,3.84,239.80000299999998,3.790092,2.5,1,0,0,0,0,0
220.5,-0.7468,-1.4980266,12.0908728,-0.025540999999999994,-0.019470750000000002,0.1374025,0.916834,1.469373,-1.4152129999999998,,,,,,,,1,0,0,0,0,0
221.0,-1.1183454000000002,-0.6100502000000001,9.469655400000002,0.028954200000000003,0.06774299999999998,-0.24165119999999995,0.916834,1.469373,-1.4152129999999998,52.354085,4.92168,4.9643180000000005,3.53,239.80000299999998,3.790092,2.5,1,0,0,0,0,0
221.5,1.1560922,1.8441484,7.8348788,-0.0035427999999999987,-0.0785244,-0.012125399999999995,0.024482399999999994,-0.13124339999999995,0.156213,,,,,,,,1,0,0,0,0,0
222.0,1.2801002000000001,-0.11635099999999991,10.448499199999999,0.011117399999999998,0.0816704,0.07186639999999998,-0.08937020000000002,0.046988000000000016,-0.06411799999999995,52.354074,4.921638,6.688764999999999,3.09,243.399994,3.790092,2.5,1,0,0,0,0,0
222.5,-0.6704692,0.8221736,8.059924,-0.004947800000000002,-0.09700240000000002,-0.015698999999999994,-0.552746,0.39421799999999996,0.104515,,,,,,,,1,0,0,0,0,0
223.0,-0.8615956,-4.168177399999999,16.9451322,-0.026342750000000005,-0.0608175,0.13541725,-0.552746,0.39421799999999996,0.104515,52.354065000000006,4.921594,7.18354,3.23,250.69999700000002,3.790092,2.5,1,0,0,0,0,0
223.5,0.18771680000000007,-1.6271791999999998,7.133063999999999,0.1505128,-0.0035735999999999954,0.117802,-0.6619572,0.30682919999999997,-0.04585140000000004,,,,,,,,1,0,0,0,0,0
224.0,-1.0311271999999998,-0.19208380000000017,7.8323664,-0.22011860000000003,0.133684,-0.08695420000000001,0.010776999999999991,-0.2101070000000001,-0.5641700000000001,52.354051,4.921547,7.254536999999999,4.08,241.5,3.790092,2.5,1,0,0,0,0,0
224.5,-0.9755535999999999,1.9024133999999997,11.378170799999998,0.08805360000000002,-0.008185400000000006,-0.026907799999999992,0.5882736,0.3364016,0.7678034,,,,,,,,1,0,0,0,0,0
225.0,-0.7569694000000002,-1.2504892,7.9536228,0.08074625,-0.011720499999999991,-0.10369125,0.785067,0.475785,0.956777,52.354034000000006,4.921499,7.4802539999999995,3.58,239.399994,3.790092,2.5,1,0,0,0,0,0
225.5,0.04498519999999999,1.7005194000000003,5.817848799999999,-0.022478999999999992,-0.011392399999999992,0.1157558,0.6678636,0.43004800000000004,0.535565,,,,,,,,1,0,0,0,0,0
226.0,0.10079759999999997,-0.08129600000000022,9.727421799999998,-0.0280378,0.025899800000000008,-0.10866980000000001,-0.2744332,-0.23815800000000004,0.18886759999999997,52.354019,4.921454,7.521101,3.56,240.600006,3.790092,2.5,1,0,0,0,0,0
226.5,1.1487942,-2.6278575999999996,10.8905732,0.04602740000000001,-0.07180500000000001,-0.0014050000000000006,-0.3007974,0.03224819999999999,-0.2766482,,,,,,,,1,0,0,0,0,0
227.0,0.5246859999999999,2.9673396,6.2085372,0.022967799999999993,0.020860200000000006,0.09599460000000001,-0.032726,2.394415,-2.611122,52.354001000000004,4.921406,6.634817,4.18,237.30000299999998,3.790092,2.5,1,0,0,0,0,0
227.5,0.6681360000000001,-2.9689544,13.443475999999999,-0.006872249999999996,-0.017599999999999998,0.051654749999999985,-0.032726,2.394415,-2.611122,,,,,,,,1,0,0,0,0,0
228.0,-0.19316080000000016,-4.406921199999999,16.6424406,-0.0412932,0.0248002,-0.013957799999999992,-0.07289220000000003,0.014249599999999946,-0.17532900000000012,52.353984999999994,4.921359,7.314089,3.41,238.30000299999998,3.790092,2.5,1,0,0,0,0,0
228.5,-0.2457428,3.4533215999999998,4.235176200000001,0.0021685999999999928,0.0359788,0.029503799999999997,-0.24818099999999993,-0.1249912,-0.20449060000000002,,,,,,,,1,0,0,0,0,0
229.0,-1.6941782,1.5364912,7.083174,-0.04370619999999999,-0.056809,-0.008185399999999987,-0.406444,0.40548599999999996,-1.172656,52.353972,4.921317,7.965535000000001,3.42,235.80000299999998,3.790092,2.5,1,0,0,0,0,0
229.5,-0.22229320000000002,0.8754139999999999,5.962674799999999,0.023555500000000007,0.025808499999999998,-0.098194,-0.406444,0.40548599999999996,-1.172656,,,,,,,,1,0,0,0,0,0
230.0,1.9890937999999998,-3.385844,14.913326800000002,0.02373140000000002,-0.0626424,0.1435492,-0.6730598000000001,0.23227699999999998,-0.9706332,52.353957,4.9212739999999995,8.113439,3.56,240.899994,3.790092,2.5,1,0,0,0,0,0
230.5,1.4021940000000002,-0.23730819999999983,8.714959400000001,-0.009620999999999996,0.0907106,-0.13334800000000002,0.16200639999999997,-0.279621,0.11207780000000005,,,,,,,,1,0,0,0,0,0
231.0,0.5563910000000001,1.0727621999999999,8.9937232,0.043186800000000004,0.005986199999999999,-0.009224000000000005,-0.28406600000000004,-0.19691299999999998,-0.0171346,52.353943,4.921228,8.426502000000001,3.71,238.5,3.790092,2.5,1,0,0,0,0,0
231.5,-0.10929220000000006,-2.4812971999999998,12.036017199999998,-0.0027870000000000117,-0.07181275,0.016149250000000004,-1.09209,-0.43820800000000004,0.138548,,,,,,,,1,0,0,0,0,0
232.0,0.34779679999999996,0.4913063999999999,9.2769136,-0.029931400000000004,0.083411,-0.05503719999999999,-1.09209,-0.43820800000000004,0.138548,52.353933000000005,4.921183,10.494883,3.15,244.600006,3.790092,2.5,1,0,0,0,0,0
232.5,-0.7168298,-1.2260223999999997,10.393883399999998,0.014141199999999984,-0.0445308,0.010170599999999998,-0.22320120000000002,-0.16608359999999997,-0.2596557999999999,,,,,,,,1,0,0,0,0,0
233.0,-0.09403799999999993,3.0766316,5.948078799999999,-0.027304800000000008,-0.018630799999999996,-0.0198524,0.2766652,0.07442760000000001,-0.3739567999999999,52.353922999999995,4.921138,10.311981,3.61,246.399994,3.790092,2.5,1,0,0,0,0,0
233.5,0.07064819999999998,0.41252279999999963,6.8392257999999995,0.022112600000000003,-0.021226800000000007,0.1141674,1.009387,0.626402,-1.18143,,,,,,,,1,0,0,0,0,0
234.0,-0.8310272000000001,-0.5081159999999997,10.715778,0.020425,0.040735999999999994,-0.09044374999999999,1.009387,0.626402,-1.18143,52.353913,4.921093,10.873952000000001,3.3,248.899994,3.790092,2.5,1,0,0,0,0,0
234.5,-1.1766108000000002,-1.614557,12.439207999999999,-0.018325400000000002,-0.022815200000000015,0.0526552,0.16983700000000004,0.349617,-0.7160366,,,,,,,,1,0,0,0,0,0
235.0,-0.4578068,0.7220340000000002,9.0072428,-0.0187226,0.0502424,0.039644,0.1049572,-0.0620922,0.24177340000000003,52.353901,4.921049,11.297372,3.26,240.600006,3.790092,2.5,1,0,0,0,0,0
235.5,-0.36592260000000004,-2.5780272,12.7335256,0.03768919999999999,0.003298800000000007,-0.2321218,0.680188,0.738748,-0.291522,,,,,,,,1,0,0,0,0,0
236.0,-0.6406183999999999,0.9138192000000002,9.466365199999998,0.0007635000000000003,-0.12736175,0.2163165,0.680188,0.738748,-0.291522,52.353887,4.921003,10.814172,3.73,243.5,3.790092,2.5,1,0,0,0,0,0
236.5,-1.4319250000000001,0.07950139999999983,9.682557000000001,0.003573600000000002,0.09969019999999999,-0.091444,0.6593076,0.614837,-0.5138178,,,,,,,,1,0,0,0,0,0
237.0,-1.5316456,2.0117656,6.0169322,-0.014843599999999995,-0.024892,-0.020982600000000007,-0.002238000000000029,0.05804060000000002,-0.13951980000000005,52.353871999999996,4.920954,9.719273,3.66,240.30000299999998,3.790092,2.5,1,0,0,0,0,0
237.5,-1.1846864,0.615015,8.1126262,0.041782,0.01808120000000001,0.042515000000000004,0.08534459999999999,-0.8019910000000001,0.6213292000000001,,,,,,,,1,0,0,0,0,0
238.0,0.9068800000000001,-0.3092124,11.891131999999999,-0.01989075,-0.11629025000000001,0.023708500000000007,0.032487,-0.9393870000000002,0.520001,52.353856,4.920902,9.037763,3.89,241.899994,3.790092,2.5855599999999996,0,0,0,1,0,0
238.5,0.27044860000000004,0.6888340000000001,9.2886384,0.0011911999999999977,-0.0235788,0.1168856,0.032487,-0.9393870000000002,0.520001,,,,,,,,0,0,0,1,0,0
239.0,0.05593219999999999,1.9488341999999998,6.8179292,0.0007025999999999921,0.19748720000000003,-0.08362499999999999,0.3650684,0.32413359999999997,-0.4474195999999999,52.353840000000005,4.920853,8.770317,3.48,241.80000299999998,3.790092,2.5,0,0,0,1,0,0
239.5,-0.175633,-1.6779667999999994,12.219966199999998,-0.009468200000000001,0.21569000000000002,-0.38284840000000003,1.0131001999999998,-0.42218940000000005,0.3418584,,,,,,,,0,0,0,1,0,0
240.0,-0.9561719999999999,1.5441484,7.7641713999999995,0.11239599999999998,0.0511586,-0.45297400000000004,2.136456,0.6419729999999999,0.35034899999999997,52.353826,4.920803,8.444036,3.75,247.80000299999998,3.790092,2.5,0,0,0,1,0,0
240.5,-0.7649253999999999,-3.1102506000000005,11.6745816,0.119726,-0.01320975,-0.4214465,2.136456,0.6419729999999999,0.35034899999999997,,,,,,,,0,0,0,1,0,0
241.0,-0.8397611999999999,-3.0461230000000006,12.683156399999998,0.026480399999999994,-0.005894799999999996,-0.414643,1.6774374,0.06833319999999996,0.08650539999999998,52.353818,4.920746,8.178,3.9,259.899994,3.790092,2.5,0,0,0,1,0,0
241.5,-0.25621160000000004,1.8568903999999997,5.4300922,0.08860359999999998,-0.058366600000000005,-0.2947643999999999,0.49297899999999995,-0.204359,-0.14876279999999995,,,,,,,,0,0,0,1,0,0
242.0,-0.3261418,-3.0512077999999994,11.120643000000001,0.01230859999999999,-0.23093080000000002,0.04141539999999999,0.360379,-0.02125,1.734048,52.353821,4.920686,7.635733999999999,4.18,279.799988,3.790092,2.5,1,0,0,0,0,0
242.5,-1.3926227999999998,0.4024130000000003,8.409814800000001,0.010346249999999987,0.01561475,0.01343875,0.360379,-0.02125,1.734048,,,,,,,,1,0,0,0,0,0
243.0,0.8458627999999999,-0.5733802000000001,10.1172128,0.004276000000000013,-0.006749799999999998,-0.11703839999999999,0.3720024,-0.5577441999999999,1.6829562,52.353834,4.92063,7.18589,3.77,294.600006,3.790092,2.5,1,0,0,0,0,0
243.5,-0.30604200000000004,-2.8432114000000004,13.165788800000001,0.003878799999999999,0.004886600000000003,-0.0312754,-0.29937040000000004,-0.26932459999999997,-0.23720540000000007,,,,,,,,1,0,0,0,0,0
244.0,-0.36915259999999994,0.08338980000000004,10.3576318,-0.0368952,-0.013774599999999998,-0.0311226,-0.430591,-0.2501092,-0.0631406,52.353851,4.920580999999999,6.819064999999999,3.7,302.200012,3.790092,2.5,1,0,0,0,0,0
244.5,-0.46408820000000006,-0.49962140000000027,15.545690200000001,0.17900900000000003,0.0248308,-0.11703840000000001,-0.343354,0.337032,-0.397804,,,,,,,,1,0,0,0,0,0
245.0,-2.6854050000000003,2.8756342000000013,7.805208,-0.182987,-0.09029124999999999,0.25228000000000006,-0.343354,0.337032,-0.397804,52.353868,4.920535,6.952913000000001,3.53,300.299988,3.790092,2.5,0,0,0,1,0,0
245.5,0.8047660000000001,-1.0304092,9.962636400000001,-0.0693314,0.22237900000000002,-0.1312406,0.12981159999999997,-0.028045599999999997,-0.29607340000000004,,,,,,,,0,0,0,1,0,0
246.0,-0.9180062,0.33242299999999964,8.5976512,-0.13643280000000002,0.448942,-0.8133431999999999,2.41823,0.22042579999999998,-0.036580600000000005,52.353883,4.920494000000001,6.455841,3.01,303.799988,3.790092,2.5,0,0,0,1,0,0
246.5,2.3429323999999996,-5.9987468,18.277217,0.6406872,0.17073179999999993,-1.1661378,1.6515891999999996,-1.0547828000000001,2.3775942000000003,,,,,,,,0,0,0,1,0,0
247.0,-2.0251656,-0.3413957999999999,9.584211999999999,0.23987200000000003,-0.65410275,0.15339874999999997,1.309669,-0.491583,2.128118,52.353907,4.920464,6.667160000000001,3.84,324.5,3.790092,2.5,0,0,0,1,0,0
247.5,0.43680959999999996,-0.18741760000000002,10.361101600000001,-0.0221128,-0.15017660000000002,0.2163928,0.4889932,-0.46478739999999996,1.4775038,,,,,,,,0,0,0,1,0,0
248.0,-1.2669996000000001,-0.12580260000000001,9.7870036,0.0352458,-0.131393,0.125529,-0.4808374000000001,-0.4097444,0.14982260000000006,52.353937,4.92045,6.8448080000000004,3.49,347.799988,3.790092,2.5,1,0,0,0,0,0
248.5,2.6018954,-0.5952743999999996,9.5487982,0.007543799999999999,0.08203679999999999,0.1833458,-0.6415877999999999,0.7310516,0.0942816,,,,,,,,1,0,0,0,0,0
249.0,1.2696318,-0.5528017999999999,12.688959,-0.018439999999999998,0.21276574999999998,-0.31775525,-0.971866,1.356242,0.312205,52.353968,4.920448,6.111514,3.43,357.700012,3.790092,2.5,1,0,0,0,0,0
249.5,1.3453643999999998,-1.1379065999999998,12.9556986,0.027366,-0.11215159999999999,0.09480359999999999,-0.971866,1.356242,0.312205,,,,,,,,1,0,0,0,0,0
250.0,-0.9819544,-1.3855638000000003,12.2739238,-0.0165232,0.0010384000000000012,0.1045772,0.25681000000000004,0.3709516,-0.8767516000000001,52.354001000000004,4.920449,6.229541,3.76,356.0,3.790092,2.5,1,0,0,0,0,0
250.5,0.6342174,0.28426719999999983,9.135019199999999,-0.003665199999999997,-0.021623999999999997,-0.019639000000000004,-1.5113293999999997,-2.1957421999999998,1.8213825999999997,,,,,,,,1,0,0,0,0,0
251.0,1.0872984,-0.7795816,11.1972736,-0.010231600000000002,0.04052979999999999,-0.018172799999999992,0.2213916000000001,1.3380732,-1.9882336000000003,52.354034000000006,4.920445,5.9339319999999995,3.66,351.200012,3.790092,2.5,1,0,0,0,0,0
251.5,-0.38099720000000004,-0.589651,10.875259199999999,0.040010500000000004,0.0361545,0.043866499999999996,-0.3095156,0.24282360000000006,-0.5896358,,,,,,,,1,0,0,0,0,0
252.0,-0.1631306,0.8707481999999999,8.1063446,-0.0019547999999999996,-0.060717999999999994,-0.0772416,-0.11683720000000002,-0.18286739999999999,0.009964200000000012,52.354067,4.920437000000001,5.722975,3.7,350.200012,3.790092,2.5,1,0,0,0,0,0
252.5,0.3119641999999999,-0.9999008,11.4271036,-0.007391199999999999,0.063589,0.08579339999999999,-0.464158,0.322573,-0.4021389999999999,,,,,,,,1,0,0,0,0,0
253.0,-0.13998019999999997,0.5952743999999999,6.9200428,0.023609200000000004,-0.017256200000000006,-0.10424119999999999,-0.464158,0.322573,-0.4021389999999999,52.3541,4.920429,5.457148,3.68,349.600006,3.790092,2.5,1,0,0,0,0,0
253.5,0.8070989999999998,1.3639687999999999,4.9727644,-0.002749000000000005,0.024280999999999997,-0.07307274999999999,0.08548020000000003,-0.2153514,-0.2835310000000001,,,,,,,,1,0,0,0,0,0
254.0,0.3348157999999999,-0.49639120000000014,10.6944818,0.0036039999999999996,-0.029778799999999994,0.14932159999999997,-0.27228260000000004,-0.23841519999999994,0.08591360000000002,52.354132,4.920421,5.375891,3.67,350.100006,3.790092,2.5,1,0,0,0,0,0
254.5,-0.8459228,0.44309079999999995,9.4932848,-0.0277018,-0.0021379999999999954,-0.17207580000000003,0.05126699999999999,-0.33619899999999997,0.5492630000000001,,,,,,,,1,0,0,0,0,0
255.0,1.4114064,1.1394022,6.195616,0.020829800000000002,-0.0428814,0.23871919999999996,-0.5509044,-0.006670399999999965,0.2636088,52.354166,4.920414,5.481708,3.85,352.299988,3.790092,2.5,1,0,0,0,0,0
255.5,-1.7751154,1.3927424,7.2996048,0.0098652,-0.0005500000000000005,-0.0953532,0.3067962,-0.49506819999999985,1.7791767999999997,,,,,,,,1,0,0,0,0,0
256.0,0.9622734,-0.26596260000000005,11.328819200000002,-0.009773749999999998,0.0672315,0.0492875,0.2540840000000001,0.92066,-1.2712212,52.354199,4.920406,5.346801999999999,3.67,351.100006,3.790092,2.5,1,0,0,0,0,0
256.5,-0.46683979999999997,-0.60347,10.7257678,0.02028,0.061756599999999995,-0.13515000000000002,-0.42677599999999993,2.0048801999999997,-2.176546,,,,,,,,1,0,0,0,0,0
257.0,1.3779666,0.5581856000000001,8.935039,0.0170122,-0.10036220000000003,0.060260000000000015,-0.40741360000000004,-0.12812059999999997,-0.003967000000000001,52.354233,4.9203980000000005,5.210615,3.96,352.100006,3.790092,2.5,1,0,0,0,0,0
257.5,-1.1643474,-1.2750754,11.742178599999999,-0.0113008,0.0494176,-0.005375600000000003,-0.12061379999999997,0.0672966,-0.24433340000000006,,,,,,,,1,0,0,0,0,0
258.0,-0.5190034,-1.5512668,12.647562599999999,0.013476750000000004,-0.10842524999999999,0.06093199999999999,-0.689837,0.46170999999999995,-1.145968,52.354267,4.920389,4.788722,3.8,351.200012,3.790092,2.5,1,0,0,0,0,0
258.5,-0.6905686,0.6116654,8.6476012,-0.007666199999999998,0.0250446,0.0996294,-0.689837,0.46170999999999995,-1.145968,,,,,,,,1,0,0,0,0,0
259.0,1.1769698,-0.7867002,12.3357782,-3.039999999999987e-05,0.04333959999999999,-0.0981326,-0.2486466,0.04089659999999999,-0.09812480000000001,52.3543,4.920380000000001,4.425543,3.79,351.700012,3.790092,2.5,1,0,0,0,0,0
259.5,1.1160722,0.245085,8.827242199999999,-0.008429800000000001,-0.08047939999999999,0.08722919999999999,-0.17431999999999997,-0.08541880000000002,-0.05510019999999999,,,,,,,,1,0,0,0,0,0
260.0,-0.20195419999999978,2.4836901999999994,5.3230732,-0.00885724999999999,0.08983274999999999,0.015232999999999983,0.40927199999999997,0.167967,-0.040063999999999995,52.354333000000004,4.92037,4.264390000000001,3.83,349.600006,3.790092,2.5,1,0,0,0,0,0
260.5,0.5368297999999999,-1.9812572000000004,11.1156782,0.019272000000000004,-0.0556484,0.0521966,0.40927199999999997,0.167967,-0.040063999999999995,,,,,,,,1,0,0,0,0,0
261.0,-0.8303691999999998,-0.5175078,8.3977904,-0.014049599999999995,-0.0346046,0.16257699999999997,-0.23928420000000003,-0.07370939999999998,0.12031339999999999,52.354365,4.920357,3.8263190000000002,3.74,348.100006,3.790092,2.5,1,0,0,0,0,0
261.5,0.8676972000000001,-1.0073185999999996,11.2170142,0.005405999999999999,0.0013134000000000034,-0.0556786,0.005389399999999966,-0.21076939999999994,0.168777,,,,,,,,1,0,0,0,0,0
262.0,0.5481956,-1.191207,11.2212016,0.0548848,-0.008704599999999996,0.15426920000000002,-0.5698740000000001,0.7850296,-0.5338556,52.354397999999996,4.920342,3.5958870000000003,3.87,345.5,3.790092,2.5,1,0,0,0,0,0
262.5,-0.5789438,-4.366423,13.808740600000002,-0.0681475,0.10319475,-0.06112275,-0.526571,1.099277,-0.534369,,,,,,,,1,0,0,0,0,0
263.0,-0.08530420000000002,1.6536797999999997,9.9224968,0.021715599999999998,-0.0999042,0.0849076,-0.526571,1.099277,-0.534369,52.354431,4.920323000000001,3.4878910000000003,4.11,342.5,3.790092,2.5,1,0,0,0,0,0
263.5,1.2460028,1.5470196,9.5203834,0.025930600000000005,0.1715258,-0.007207999999999981,0.30318560000000006,-0.1252094,-0.04145539999999996,,,,,,,,1,0,0,0,0,0
264.0,-0.8401797999999999,-2.480639,12.9418802,0.0017102000000000007,-0.14535119999999999,-0.0007635999999999976,-0.052193400000000015,-0.1582712,-0.11690640000000001,52.354464,4.9203019999999995,3.4536839999999995,3.68,339.899994,3.790092,2.5,1,0,0,0,0,0
264.5,0.26135600000000003,-1.4762517999999996,11.725489,0.0025577500000000045,-0.049364000000000005,0.17035,-0.01045,0.063404,-0.31288699999999997,,,,,,,,1,0,0,0,0,0
265.0,0.7051649999999999,0.9321242000000003,9.0967342,-0.04361439999999999,0.092574,0.0180504,-0.01045,0.063404,-0.31288699999999997,52.354495,4.920277,3.2472939999999997,4.11,336.100006,3.790092,2.5,1,0,0,0,0,0
265.5,-2.4504298,2.3225333999999997,3.9370308,0.07116379999999997,-0.0232122,0.02858759999999999,0.028427000000000025,-0.07987819999999997,0.1537466,,,,,,,,1,0,0,0,0,0
266.0,-0.3229113999999999,0.9590432,7.723911799999999,0.011025999999999998,0.026999600000000002,-0.047524,0.0691788,-0.2721832,0.11266499999999999,52.354526,4.920249,2.9091869999999997,3.98,333.5,3.790092,2.5,1,0,0,0,0,0
266.5,-0.655095,0.15732820000000008,9.6248296,-0.016760000000000004,-0.01721825,0.10308075,-0.037220600000000006,-0.8448948000000002,0.9310145999999999,,,,,,,,1,0,0,0,0,0
267.0,0.12376880000000001,-0.5518448000000001,9.523793000000001,-0.007116400000000002,0.101706,-0.1223526,-0.142238,-1.182652,1.2972489999999999,52.354557,4.92022,3.032078,3.99,331.799988,3.790092,2.5,1,0,0,0,0,0
267.5,-0.039601200000000024,-0.04067799999999998,10.9429762,-0.0030848,-0.12559,0.0303898,-0.029266999999999998,-0.7691456000000001,0.8122811999999999,,,,,,,,1,0,0,0,0,0
268.0,-0.3423532000000001,-0.5045264000000002,10.3436936,0.010842599999999997,0.046974,0.05546500000000001,0.15260619999999997,0.024002999999999997,0.002205600000000002,52.354589000000004,4.920191,3.274538,4.0,332.799988,3.790092,2.5,1,0,0,0,0,0
268.5,-0.7152145999999998,-0.3387640000000001,9.884272000000001,0.012400200000000004,-0.015576600000000001,-0.029687399999999985,-0.41214220000000007,-0.0533054,0.33470760000000005,,,,,,,,1,0,0,0,0,0
269.0,-0.6090932,-0.8750551999999999,9.344451000000001,0.0006107500000000012,0.05722875,-0.06749875,-1.924973,-0.29841999999999996,0.5487350000000001,52.354621,4.920163,3.22348,3.99,333.200012,3.790092,2.5,1,0,0,0,0,0
269.5,0.33708879999999997,0.4706081999999999,9.290133800000001,-0.011331199999999996,0.008307400000000001,-0.059343599999999996,-1.924973,-0.29841999999999996,0.5487350000000001,,,,,,,,1,0,0,0,0,0
270.0,0.538744,0.07052859999999994,9.2306124,0.005192199999999997,-0.0739738,0.003939799999999996,-0.009202599999999995,-0.18692159999999997,0.10978479999999995,52.354653000000006,4.920137,3.1243279999999998,3.99,334.0,3.790092,2.5,1,0,0,0,0,0
270.5,0.40205399999999986,-0.37555380000000005,9.5960564,0.011575600000000002,0.006597,0.0799292,-0.178595,0.041005799999999995,-0.049828000000000004,,,,,,,,1,0,0,0,0,0
271.0,0.7269992000000001,-0.5440081999999999,10.9702542,0.00507775,-0.01110975,-0.015271,-0.153872,0.24744099999999997,-0.053544000000000015,52.354684999999996,4.920111,3.165985,3.94,333.600006,3.790092,2.5,1,0,0,0,0,0
271.5,0.01411780000000007,-1.0951350000000002,10.777392800000001,-0.009498600000000001,-0.0054366,0.019730400000000002,-0.153872,0.24744099999999997,-0.053544000000000015,,,,,,,,1,0,0,0,0,0
272.0,1.5218952,-0.13561320000000002,9.309516,0.0140192,0.0354904,0.002840200000000015,-0.24665719999999997,0.0983646,0.15245899999999998,52.354717,4.920086,3.036194,3.93,334.600006,3.790092,2.5,1,0,0,0,0,0
272.5,0.15116659999999998,-0.09140600000000004,10.4958776,0.010353800000000002,-0.0342382,0.18817140000000002,-0.17928179999999994,-0.0696116,0.016929199999999978,,,,,,,,1,0,0,0,0,0
273.0,0.9713063999999999,-0.9157931999999999,11.937194200000002,0.0073912000000000005,0.064536,-0.22799859999999997,1.4873585999999999,0.2851246,-0.0623982,52.354748,4.920059999999999,3.062408,3.93,332.600006,3.790092,2.5,1,0,0,0,0,0
273.5,0.7302297999999999,0.4440478,8.9777512,0.025579249999999998,-0.1601185,0.1056385,1.638226,0.420476,-0.07347200000000001,,,,,,,,1,0,0,0,0,0
274.0,0.25704919999999987,0.13872379999999995,9.082436999999999,-0.013224600000000003,0.0299012,0.119604,1.243093,0.3893992,-0.09753400000000001,52.35478,4.920033,2.8225689999999997,3.9,332.5,3.790092,2.5,1,0,0,0,0,0
274.5,-0.1258624,0.8568698000000001,8.2510508,-0.010170599999999998,0.035887199999999994,0.008368800000000004,-0.25966839999999997,-0.02090900000000002,0.049771800000000005,,,,,,,,1,0,0,0,0,0
275.0,-1.1984454,-0.2486142,9.398768200000001,0.004184400000000002,0.08878680000000001,-0.1083338,0.2330834,0.2196556,-0.19295040000000002,52.35481,4.9200040000000005,2.584375,3.91,330.5,3.790092,2.5,1,0,0,0,0,0
275.5,-0.4232903999999998,0.07375860000000001,8.765746799999999,0.00839925,-0.1011715,0.13453925,0.395543,0.4213050000000001,-0.4256130000000001,,,,,,,,1,0,0,0,0,0
276.0,-0.5975476,1.4385648,7.704889,-0.05265500000000001,0.07742479999999999,-0.092971,0.395543,0.4213050000000001,-0.4256130000000001,52.354841,4.919974,2.6599619999999997,3.98,330.799988,3.790092,2.5,1,0,0,0,0,0
276.5,-0.6139384,1.0387841999999998,7.5503722,0.02321220000000001,0.0520442,-0.1542694,0.2948676,0.16200560000000003,0.19993100000000003,,,,,,,,1,0,0,0,0,0
277.0,0.5605186000000001,-0.4092326,11.243993600000001,0.0745844,-0.11884020000000002,0.0329244,-0.320042,-0.37361140000000004,0.06262800000000002,52.354872,4.919943,2.6269080000000002,4.08,332.100006,3.790092,2.5,1,0,0,0,0,0
277.5,-1.064447,-4.287340200000001,12.2900752,-0.033367500000000015,0.04188125,0.02031075,-0.373913,-0.72513,0.4707100000000001,,,,,,,,1,0,0,0,0,0
278.0,1.0999805999999999,0.9098108000000001,9.0939824,-0.017470199999999998,-0.0649026,0.010689799999999998,-0.373913,-0.72513,0.4707100000000001,52.354904,4.9199150000000005,2.59288,4.05,334.399994,3.790092,2.5,1,0,0,0,0,0
278.5,0.5411964,1.2912268,8.364649799999999,0.006047399999999997,0.0379334,0.06991119999999999,-0.2614954,-0.6213632,0.29771200000000003,,,,,,,,1,0,0,0,0,0
279.0,-0.18921260000000006,-1.2894321999999998,11.2191678,0.0318556,0.01820339999999999,-0.12073400000000001,0.13411340000000002,-0.046770399999999976,0.05306720000000002,52.354936,4.919887999999999,2.568679,4.07,335.600006,3.790092,2.5,1,0,0,0,0,0
279.5,0.0827916,-1.4715858000000002,11.3462862,-0.0419042,-0.022570800000000002,0.04407279999999999,0.05119980000000002,-0.39378519999999995,0.36376379999999997,,,,,,,,1,0,0,0,0,0
280.0,-0.7021738,-0.7612765999999997,9.800462999999999,0.047608,-0.06429175,0.02741175,0.47222200000000003,-1.234063,1.325243,52.354966999999995,4.919862999999999,2.4683669999999998,3.96,334.899994,3.790092,2.5,1,0,0,0,0,0
280.5,-2.0472394,-0.6339188000000002,8.368538599999999,-0.011819800000000014,-0.008521400000000002,0.0536018,0.47222200000000003,-1.234063,1.325243,,,,,,,,1,0,0,0,0,0
281.0,0.5864809999999999,-2.6002802,10.9304136,0.008796199999999994,0.051097399999999994,-0.06169559999999998,0.16970840000000006,-0.30732260000000006,-0.16220880000000001,52.354997999999995,4.919834,2.417491,4.02,331.299988,3.790092,2.5,1,0,0,0,0,0
281.5,0.5961717999999999,-0.9907482,11.687861799999999,-0.0025959999999999985,-0.027366,0.0707974,-0.449714,0.14671920000000005,-0.11120960000000002,,,,,,,,1,0,0,0,0,0
282.0,0.29401819999999995,1.787319,6.8334828000000005,0.009620749999999999,0.053373,-0.04306475,-0.862805,1.205227,-1.279727,52.35503,4.919805,2.477272,4.18,331.299988,3.790092,2.5,1,0,0,0,0,0
282.5,-0.4527819999999999,0.2967099999999999,7.838109399999999,-0.0309394,-0.029381800000000003,0.010201200000000002,-0.862805,1.205227,-1.279727,,,,,,,,1,0,0,0,0,0
283.0,0.6752545999999999,0.44638100000000003,8.004889,0.0012214000000000003,0.0603822,-0.0801736,-0.11210019999999996,0.5182096,-0.46238720000000005,52.355061,4.919776000000001,2.332341,3.9,331.600006,3.790092,2.5,1,0,0,0,0,0
283.5,-0.1434496,-0.3226722000000001,9.3659266,0.002107399999999998,-0.0978882,0.0554038,-0.3997272,0.010278799999999994,0.09098540000000001,,,,,,,,1,0,0,0,0,0
284.0,0.35802600000000007,-0.7396814000000002,11.483395199999999,0.05354099999999999,0.038208400000000003,0.048409799999999996,-0.4074596,0.12742880000000004,-0.5159614,52.355092,4.91975,2.227634,3.89,334.0,3.790092,2.5,1,0,0,0,0,0
284.5,-1.1538188000000003,-1.1135595999999999,11.017692400000001,-0.038559750000000004,0.05665624999999999,-0.06425349999999999,-0.654528,0.322323,-0.77978,,,,,,,,1,0,0,0,0,0
285.0,-0.40169499999999997,0.5467600000000001,9.1246108,0.008521400000000004,-0.0689952,-0.016279200000000004,-0.5967484,0.3037558,-0.6533126,52.355121999999994,4.919726,2.267762,3.8,333.899994,3.790092,2.5,1,0,0,0,0,0
285.5,1.0706084,-0.6126224,10.8308722,-0.01927220000000001,0.017867200000000003,0.012278000000000002,-0.007451799999999981,0.008206799999999959,0.16931960000000001,,,,,,,,1,0,0,0,0,0
286.0,1.0046864,-0.4938188,10.2467842,0.0163708,0.007269199999999995,0.037903000000000006,-0.7328972,-0.1454282,0.20473639999999999,52.355151,4.919701,2.061613,3.66,333.600006,3.790092,2.5,1,0,0,0,0,0
286.5,-0.11587240000000003,-0.2855236,10.106266,-0.0176765,0.011987999999999999,0.04027775,-0.843881,-0.888085,0.8567319999999998,,,,,,,,1,0,0,0,0,0
287.0,-0.045702599999999996,0.6774679999999997,9.6296754,0.00024419999999999997,0.06142080000000001,-0.1220472,-0.843881,-0.888085,0.8567319999999998,52.35518,4.919677,2.1221259999999997,3.7,333.0,3.790092,2.5,1,0,0,0,0,0
287.5,-0.585344,-0.5924630000000002,9.531629599999999,0.0333522,-0.11682459999999999,0.052319000000000004,-0.34006379999999997,-0.35897200000000007,0.3078188,,,,,,,,1,0,0,0,0,0
288.0,-0.6449258,0.49848479999999984,8.223234199999998,-0.010231800000000003,0.007727199999999999,0.1058292,-0.07170200000000002,-0.11258659999999998,0.1839186,52.355209,4.919651999999999,1.9650490000000003,3.73,333.0,3.790092,2.5,1,0,0,0,0,0
288.5,-1.0162914,-0.7948953999999999,10.3094164,-0.000954499999999997,0.091627,-0.09338325,-0.132403,-0.692974,1.635875,,,,,,,,1,0,0,0,0,0
289.0,0.16002000000000005,-1.1014164,10.196834,0.026907800000000003,-0.0393692,-0.0073302,-0.132403,-0.692974,1.635875,52.355238,4.9196279999999994,1.872669,3.51,332.799988,3.790092,2.5,1,0,0,0,0,0
289.5,0.7538590000000001,-1.6311275999999997,12.0740038,-0.014324399999999996,0.0118198,-0.0052532,0.02001900000000001,-0.5103821999999999,0.9634865999999999,,,,,,,,1,0,0,0,0,0
290.0,-0.6618548000000001,-0.2930612,8.7948792,0.011911600000000003,-0.0660326,0.07537840000000001,-0.37230280000000004,-0.1422184,0.019483200000000013,52.355266,4.919605000000001,1.667677,3.38,332.299988,3.790092,2.5,1,0,0,0,0,0
290.5,0.9982857999999999,0.7943572,9.2292964,-0.019791200000000002,0.07806620000000002,-0.0372618,1.0519576,0.044765400000000004,0.02645700000000002,,,,,,,,1,0,0,0,0,0
291.0,-0.9671790000000001,-0.23150539999999986,9.8736838,-0.011529500000000002,0.03771975,0.04730250000000001,1.363821,-0.049546,-0.141698,52.355292,4.919582,1.6127690000000001,3.38,332.0,3.790092,2.5,1,0,0,0,0,0
291.5,-0.1618144,0.11001000000000012,9.3367342,-0.00901,0.06245919999999999,-0.2845326,1.1401586,-0.1699816,0.46553259999999996,,,,,,,,1,0,0,0,0,0
292.0,-0.12430719999999999,-1.2876976,11.0111116,0.0378724,-0.1477334,0.0071774000000000004,0.24940220000000002,0.10809299999999995,-0.672601,52.35532,4.919559,1.6923849999999998,3.67,334.5,3.790092,2.5,1,0,0,0,0,0
292.5,-0.056051800000000096,-1.1906683999999998,12.574522,0.011545200000000002,-0.006658200000000014,0.1400672,-1.286048,0.4902208,0.019645999999999993,,,,,,,,1,0,0,0,0,0
293.0,0.9795618000000001,0.4181458000000001,9.0171726,-0.0010689999999999996,-0.031955000000000004,0.0042760000000000055,-0.956825,0.417244,-0.048392000000000004,52.355349,4.919536,1.518829,3.63,335.399994,3.790092,2.5,1,0,0,0,0,0
293.5,0.488973,-1.5003596000000001,11.8273632,0.0018019999999999959,0.03326080000000001,0.07580599999999997,-0.956825,0.417244,-0.048392000000000004,,,,,,,,1,0,0,0,0,0
294.0,0.1708476000000001,0.9740582,7.6143804,-0.024678200000000004,-0.022693200000000004,0.0559534,-0.4550666,0.189411,-0.15137839999999997,52.355378,4.919512999999999,1.6468470000000002,3.74,335.299988,3.790092,2.5,1,0,0,0,0,0
294.5,0.015792800000000006,-0.3372682,10.2525268,0.05464019999999999,0.0752564,0.035307,0.021179800000000016,-0.027909400000000008,0.08680379999999996,,,,,,,,1,0,0,0,0,0
295.0,-0.7054042,-0.09619139999999997,8.970691799999999,-0.047073500000000004,0.020081499999999988,-0.18207075,0.9231219999999999,0.43803500000000006,0.276915,52.355407,4.919487,1.538598,3.8,333.0,3.790092,2.5,1,0,0,0,0,0
295.5,1.2151352000000002,0.05294120000000002,10.181400399999998,0.0310616,-0.028068199999999998,-0.04792120000000001,0.9231219999999999,0.43803500000000006,0.276915,,,,,,,,1,0,0,0,0,0
296.0,-0.5087142,-1.6085749999999996,11.3952196,-0.008551599999999998,-0.014171599999999998,0.0701254,0.6671151999999999,0.27858160000000004,0.07177880000000002,52.355437,4.919461,1.412587,3.83,333.200012,3.790092,2.5,1,0,0,0,0,0
296.5,0.18693899999999997,-0.7296914000000001,11.270254600000001,-0.021349200000000002,-0.061115199999999995,0.044775199999999994,-0.0972056,0.01306179999999999,0.04751599999999999,,,,,,,,1,0,0,0,0,0
297.0,2.256731,-3.1672000000000002,11.063036199999999,0.05299079999999999,0.0715914,-0.014293799999999995,-0.27256,-0.11547099999999996,0.4289556,52.355467,4.919433000000001,1.2450729999999999,3.85,333.799988,3.790092,2.5,1,0,0,0,0,0
297.5,0.49860460000000006,-1.1603991999999999,11.122438,-0.03752875,-0.029626,0.03504750000000001,-0.3880071999999999,0.6934773999999999,-1.4872260000000002,,,,,,,,1,0,0,0,0,0
298.0,0.2075172,-1.9417158,11.8912516,0.031580800000000006,-0.017622999999999996,0.0931542,0.22694999999999999,-0.7736050000000001,2.58631,52.355497,4.919405,1.449017,3.87,332.600006,3.790092,2.5,1,0,0,0,0,0
298.5,-0.2899504,0.02590239999999979,8.2133638,-0.015729399999999998,0.0707972,-0.17476339999999996,-0.16711219999999996,-3.4538751999999997,5.3793358,,,,,,,,1,0,0,0,0,0
299.0,1.4615958,2.1464816000000004,5.3450276,0.0007636000000000003,-0.086954,0.11987860000000002,-0.2523158,-0.060811799999999985,-0.08107799999999998,52.355527,4.919377,1.6653509999999998,3.8,331.299988,3.790092,2.5,1,0,0,0,0,0
299.5,1.680539,-0.5870191999999999,12.5218202,-0.0080555,0.07055275,-0.008819249999999997,-0.18209459999999997,0.1111138,-0.6527466000000001,,,,,,,,1,0,0,0,0,0
300.0,0.48843499999999995,0.16959140000000006,7.9407014,0.033840999999999996,0.041659999999999996,-0.10668439999999998,-0.33227199999999996,0.796426,-1.481575,52.355556,4.919348,1.837496,3.88,330.899994,3.790092,2.5,1,0,0,0,0,0
300.5,-0.6474978,-1.4788842,10.784153,-0.0341156,-0.006383399999999993,-0.0164928,-0.33227199999999996,0.796426,-1.481575,,,,,,,,1,0,0,0,0,0
301.0,-0.05629099999999998,-0.05383839999999981,8.8094156,0.027121599999999996,-0.1128846,0.1423274,-0.434004,-0.5006145999999999,0.15239819999999996,52.355585999999995,4.919322,2.1217639999999998,3.61,333.5,3.790092,2.5,1,0,0,0,0,0
301.5,0.17706899999999998,-0.9350555999999999,10.402617000000001,-0.0018325,0.16657075,-0.13900574999999998,0.37219379999999996,0.44509300000000007,-0.6286318,,,,,,,,1,0,0,0,0,0
302.0,-1.3030113999999997,-1.9486549999999998,11.765030400000002,0.011392600000000003,0.010384200000000005,-0.1398536,0.2879034,-0.08054399999999999,0.4743523999999999,52.355616,4.9193,1.7040080000000002,3.65,336.399994,3.790092,2.5,1,0,0,0,0,0
302.5,-0.1073780000000002,-2.6603997999999995,13.297693,-0.013957799999999996,-0.11306779999999998,0.0278852,-0.5431521999999999,-1.1057399999999997,-0.04997700000000034,,,,,,,,1,0,0,0,0,0
303.0,-1.2948162,1.3566704,9.584750399999999,0.014965799999999996,0.003817799999999999,0.14764159999999998,0.9941846,-0.11302299999999998,0.10956700000000005,52.355647,4.9192800000000005,1.320922,3.58,336.899994,3.790092,2.5,1,0,0,0,0,0
303.5,-0.4204787999999999,-1.1907283999999998,9.957313000000001,-0.013285999999999996,0.004184200000000003,-0.04669939999999999,-1.323208,-0.30373640000000013,-0.6940453999999999,,,,,,,,1,0,0,0,0,0
304.0,0.44679979999999997,-0.656411,11.129078000000002,0.0017562500000000009,0.05787774999999999,0.013896749999999992,-0.5184046,0.09406339999999994,-0.316322,52.355678000000005,4.9192599999999995,1.372651,3.71,337.700012,3.790092,2.5,1,0,0,0,0,0
304.5,-2.0297718000000002,-0.5823533999999999,9.8475418,0.010017999999999999,0.011728200000000005,-0.10094240000000002,-0.8311639999999999,1.574649,-2.423793,,,,,,,,1,0,0,0,0,0
305.0,0.08087720000000007,0.3221336,9.1636136,0.017500599999999995,-0.016676399999999997,0.008613000000000015,-0.316152,0.09465060000000002,-0.16225499999999998,52.355709000000004,4.919239,1.2611729999999999,3.75,337.5,3.790092,2.5,1,0,0,0,0,0
305.5,0.8983854000000001,-0.3081953999999999,10.1872034,0.009895600000000001,-0.011605999999999998,-0.004520199999999999,0.2624916,-0.39514740000000004,0.13735120000000003,,,,,,,,1,0,0,0,0,0
