,Acceleration x (m/s^2),Acceleration y (m/s^2),Acceleration z (m/s^2),Gyroscope x (rad/s),Gyroscope y (rad/s),Gyroscope z (rad/s),Linear Acceleration x (m/s^2),Linear Acceleration y (m/s^2),Linear Acceleration z (m/s^2),Latitude (°),Longitude (°),Height (m),Velocity (m/s),Direction (°),Horizontal Accuracy (m),Vertical Accuracy (m),labelnormal,labelbrake,labelstop,labelturnright,labelturnleft,labelaccelerate
0.0,-0.5898806666666666,0.41206383333333335,9.918200166666667,-7.625000000000004e-05,-0.00133625,-0.004772,0.030705250000000007,0.017107,0.060751250000000014,52.349508,4.923717,,,,,,1,0,0,0,0,0
0.5,-0.31884359999999995,0.9062815999999999,10.02832,0.0031460000000000004,-0.004275999999999999,0.0358874,-0.11582080000000003,0.11691000000000006,0.044678,,,,,,,,1,0,0,0,0,0
1.0,-1.15687,1.2032308,9.5549598,-0.005558800000000003,-0.038391800000000004,0.11609160000000002,-0.16210300000000002,1.0032298000000002,0.011531599999999993,,,,,,,,1,0,0,0,0,0
1.5,-0.7631908000000001,0.16307100000000002,10.545109599999998,0.005711400000000001,-0.1291944,0.2118724,-0.5146305999999999,0.050837,0.05041099999999997,,,,,,,,1,0,0,0,0,0
2.0,0.8084747999999999,1.4033306,9.082437000000002,-0.009956999999999999,0.11902359999999998,-0.2812342,0.7351075000000001,0.44750775,0.042324250000000015,,,,,,,,1,0,0,0,0,0
2.5,-0.9157332,0.27457640000000005,10.6538632,0.027335500000000002,0.036612999999999986,-0.25113450000000004,0.5040744,-0.5443950000000001,0.06834339999999997,,,,,,,,1,0,0,0,0,0
3.0,0.4053440000000004,1.8628721999999998,8.2227556,0.0092542,0.031153199999999995,-0.5354686,0.5327344,-0.21894280000000005,-0.031242400000000007,52.350674,4.9257145,-3.257955,1.12,216.300003,5.771222,,1,0,0,0,0,0
3.5,0.22677960000000005,-0.14721840000000005,11.5535648,0.0288014,-0.1944328,0.1938828,-0.33986500000000003,0.005303599999999986,0.075198,,,,,,,,1,0,0,0,0,0
4.0,-0.17934200000000006,1.0029516,8.2229948,0.0009162000000000018,0.009254000000000007,0.3051184,-0.43165625,-0.0199645,-0.1144214999999999,52.350655,4.925694999999998,0.386631,1.37,216.300003,4.154156,,1,0,0,0,0,0
4.5,-0.8790036000000001,-0.23515460000000002,10.3456676,0.02664825,0.03340575,0.23425975,-0.033054600000000045,-0.6472163999999999,0.2382026,,,,,,,,1,0,0,0,0,0
5.0,-1.0719843999999998,0.6051448,9.0192664,-0.035581800000000004,0.049814600000000014,-0.2108948,0.08907439999999997,-0.0054989999999999995,-0.10995940000000004,52.350639,4.925679,1.479677,1.58,216.300003,3.790092,3.635771,1,0,0,0,0,0
5.5,0.2836692,0.6546166,8.067162,-0.0368038,-0.0736378,0.2354512,-0.2994782,-0.6475574000000001,0.3546326,,,,,,,,1,0,0,0,0,0
6.0,0.5345564000000002,-0.14883339999999984,12.9201652,0.030022999999999987,0.097705,-0.2989488,0.6072604,0.2916844,-0.5605581999999998,52.35062,4.925659,3.425378,2.21,219.100006,3.790092,3.099022,1,0,0,0,0,0
6.5,0.3235096000000001,-2.0961723999999995,11.729676199999998,0.04818075,0.013018749999999996,-0.16599775,0.35501475000000005,-0.5609165,0.46714275,,,,,,,,1,0,0,0,0,0
7.0,-1.2993625999999998,1.3097118,8.689057,-0.0480432,-0.0290154,0.01795920000000002,0.4110774,0.12171040000000001,-0.13537520000000006,52.350602,4.925637,4.166489,2.0,219.399994,3.790092,2.760893,1,0,0,0,0,0
7.5,-0.9550354,-1.3523637999999998,11.904053200000002,0.08283099999999999,-0.06835379999999999,0.05256339999999997,-0.14136300000000004,-0.29985860000000003,-0.06487440000000007,,,,,,,,1,0,0,0,0,0
8.0,-0.6159124000000002,-0.7606185999999998,11.811810000000001,-0.049662,0.0106592,0.0338102,0.43838166666666667,-0.2612776666666667,0.10636766666666668,52.350585,4.9256150000000005,3.549144,2.09,219.5,3.790092,2.728485,1,0,0,0,0,0
8.5,-0.7010371999999998,3.7828732000000005,2.6532216,0.0232734,0.1097694,-0.03790299999999999,0.9648538,-3.8343703999999996,,,,,,,,,1,0,0,0,0,0
9.0,1.9607388000000003,-3.1615764000000004,15.579847400000002,-0.05665625000000001,-0.104875,-0.14545799999999995,-2.2143812,1.1896233999999994,-2.6651608000000007,52.350564,4.9255900000000015,3.424465,3.11,223.600006,3.790092,2.5,1,0,0,0,0,0
9.5,-0.1880159999999999,-0.4153942000000001,12.0233952,0.055129,-0.026113799999999996,-0.0615122,0.055924599999999984,-3.1951464,,,,,,,,,1,0,0,0,0,0
10.0,0.021176599999999855,-0.13232319999999986,8.752406599999999,0.0225708,-0.08072340000000001,0.2454996,-0.33172480000000004,-0.3004294,0.09026020000000004,52.350542,4.92556,3.360452,2.73,226.0,3.790092,2.532803,1,0,0,0,0,0
10.5,3.1519456000000003,0.4473384000000002,5.9761942,-0.055800999999999996,0.06325339999999999,-0.0297176,0.5786952,-0.29915359999999996,-0.49677520000000003,,,,,,,,1,0,0,0,0,0
11.0,0.7330412,-1.351227,10.9445314,0.07368349999999999,0.025731999999999998,-0.03844499999999999,0.574483,-0.364265,-0.76632,52.350524,4.925535,3.403747,2.22,226.100006,3.790092,2.553666,1,0,0,0,0,0
11.5,-0.2485546,-1.442872,11.031032000000002,-0.035245800000000015,-0.027793400000000003,0.0532962,0.574483,-0.364265,-0.76632,,,,,,,,1,0,0,0,0,0
12.0,-0.6199806000000001,-3.069094,12.802976999999998,0.0010384000000000003,0.0171648,-0.0448668,0.267898,-0.279725,-0.2728285999999999,52.350504,4.925505,2.618057,3.21,225.600006,3.790092,2.5,0,1,0,0,0,0
12.5,0.34576299999999993,-2.1801606,9.6262656,-0.034574000000000014,-0.0006412000000000007,-0.03958300000000002,0.4705474000000001,-0.5439321999999999,-0.0919996,,,,,,,,0,1,0,0,0,0
13.0,-0.33667,-1.7349758000000002,11.1746014,0.017218500000000005,-0.03955249999999999,0.0786085,-0.91689,-1.193156,-0.329382,52.350484,4.925475,2.566986,2.34,224.699997,3.790092,2.5,0,1,0,0,0,0
13.5,-1.8436698,-2.8659432,7.7800834000000005,-0.0198832,0.052136,0.028649000000000008,-0.91689,-1.193156,-0.329382,,,,,,,,0,1,0,0,0,0
14.0,-0.4043271999999999,-0.0034097999999999967,9.444709799999998,0.04590519999999999,0.0791048,-0.004520200000000002,-0.3177182,-0.5097065999999998,-0.2314226,52.350474,4.925458,2.673407,0.9,226.5,3.790092,2.5,0,0,1,0,0,0
14.5,-0.7082755999999999,0.31052859999999993,9.537791,-0.0037871999999999992,-0.030939599999999994,0.0746454,-0.11527920000000005,0.48851400000000006,0.028919,,,,,,,,0,0,1,0,0,0
15.0,-0.3710072,0.08285139999999999,9.9787288,-0.0036956,0.004825600000000001,-0.023151200000000004,0.125724,0.24988,0.328702,52.350472,4.925455,3.525515,0.0,,3.790092,2.5,0,0,1,0,0,0
15.5,-1.2628122,0.4125228,9.3643712,0.002939749999999999,-0.006185,0.0038177500000000017,0.125724,0.24988,0.328702,,,,,,,,0,0,1,0,0,0
16.0,-0.1355534,0.1658822,9.9727464,0.0027184,-0.0398274,0.00788,0.15310620000000003,0.2285562,0.2788306,52.350472,4.925455,3.968997,0.0,,3.790092,2.5,0,0,1,0,0,0
16.5,-0.055633,0.205304,9.8537632,0.0014661999999999998,-0.0081548,0.0010994000000000004,0.0367934,0.07700839999999999,0.0588038,,,,,,,,0,0,1,0,0,0
17.0,0.062392799999999984,0.1975872,9.7652884,0.0102012,0.0165232,0.014629800000000004,0.0175118,-0.1643238,0.0935176,52.350474,4.925453,4.21442,0.0,,3.790092,2.5,0,0,1,0,0,0
17.5,0.4117448,1.1383851999999999,10.148798199999998,0.0012217500000000006,-0.0436755,0.16519599999999998,0.07947,-0.388675,0.178053,,,,,,,,0,0,1,0,0,0
18.0,-0.26165520000000003,1.4018950000000001,9.5309716,0.024067599999999998,-0.0010386000000000006,-0.12482659999999995,0.07947,-0.388675,0.178053,52.350473,4.92545,4.925477,0.0,,3.790092,2.5,0,0,1,0,0,0
18.5,1.3625329999999998,1.3161124,11.060404,-0.006780400000000002,-0.0687508,0.3522758,-0.9729488000000002,0.4556314,-0.24388220000000002,,,,,,,,0,0,1,0,0,0
19.0,0.5441876,0.3444470000000001,11.252068800000002,-0.01762300000000001,0.07241600000000001,-0.172595,-0.1382343999999999,0.3901644,0.31304760000000004,52.35047,4.925446,4.8211010000000005,0.41,226.800003,3.790092,2.5,1,0,0,0,0,0
19.5,0.1044465999999999,0.032602200000000095,9.332247599999999,0.0404305,0.016034750000000004,-0.25075275,-1.384447,0.426731,0.13053,,,,,,,,1,0,0,0,0,0
20.0,-0.6006583999999998,0.9249458,8.888558200000002,0.0193028,-0.0229678,-0.15200940000000002,-1.384447,0.426731,0.13053,52.350461,4.925432,4.767795,1.89,224.800003,3.790092,2.5,1,0,0,0,0,0
20.5,0.5027919999999999,-0.9473185999999996,11.7626974,0.006505600000000006,-0.11648859999999997,0.3793362,-0.9388360000000002,-0.13428899999999994,0.20201679999999994,,,,,,,,1,0,0,0,0,0
21.0,-0.3759724000000001,1.6934004000000002,6.861777600000001,0.08802299999999999,0.1317902,-0.1834986,0.11247120000000002,-0.6836377999999999,-0.05030160000000008,52.350448,4.9254120000000015,4.16486,1.61,224.699997,3.790092,2.5,1,0,0,0,0,0
21.5,-0.06329019999999999,-0.6504886,10.343394800000002,-0.13973125,-0.20684825,0.5084157499999999,-1.8710556,-1.2641028,0.34493939999999995,,,,,,,,1,0,0,0,0,0
22.0,0.07549359999999998,1.2919446,7.536374400000001,0.048593199999999996,0.0251974,0.11416739999999995,-2.377587,-1.351279,0.17083099999999998,52.350433,4.925391,4.00052,2.15,220.100006,3.790092,2.5,1,0,0,0,0,0
22.5,2.2899314000000004,0.5709873999999999,11.440444,-0.052899400000000006,0.03316899999999999,0.11456439999999997,-2.0427831999999997,-0.6082016000000001,-0.16646660000000002,,,,,,,,1,0,0,0,0,0
23.0,-0.4448854000000001,-0.3884747999999999,10.623594,-0.00039699999999999865,0.1879882,-0.0860988,0.46214520000000003,-0.23672560000000006,0.2219606,52.35041500000001,4.925371,3.721431,2.42,216.0,3.790092,2.5,1,0,0,0,0,0
23.5,-0.9677174000000001,-1.2669994000000002,11.326725200000002,0.024495,0.021013399999999998,-0.37939720000000005,0.5679148000000002,-0.5121508,0.7050254,,,,,,,,1,0,0,0,0,0
24.0,0.2361716000000002,0.8882754000000002,9.0081998,-0.01886,-0.13087425,0.21673625,0.162968,-0.881517,1.40881,52.350396,4.925356,3.608541,2.27,208.899994,3.790092,2.5,1,0,0,0,0,0
24.5,-0.31393839999999995,2.0522044,7.0063042,0.015637400000000006,0.08170079999999999,-0.1211004,0.349499,-0.5578988,1.056308,,,,,,,,1,0,0,0,0,0
25.0,0.08321039999999998,2.1769304000000003,8.202895,0.0415374,0.122017,-0.3331256,0.7829041999999999,-0.4934664000000001,0.10666119999999994,52.350376,4.925341,3.3608839999999995,2.66,206.699997,3.790092,2.5,1,0,0,0,0,0
25.5,-0.07196419999999995,0.9418748,9.0193264,0.013835599999999995,-0.19449360000000002,0.036956200000000015,-0.3212514,-0.3413594,0.2339328,,,,,,,,1,0,0,0,0,0
26.0,-0.08985040000000001,-0.5192422000000001,11.0214012,0.014278499999999996,-0.02076875,0.03012225,0.219732,-0.202019,0.8216559999999999,52.35035,4.9253160000000005,3.802606,3.6,214.0,3.790092,2.5,1,0,0,0,0,0
26.5,1.4927026,0.2164308,10.6704936,0.004550799999999998,0.10482140000000002,-0.0902526,0.219732,-0.202019,0.8216559999999999,,,,,,,,1,0,0,0,0,0
27.0,-0.8666802,0.27571299999999993,9.883194999999999,-0.02745760000000001,-0.0726294,-0.093032,-0.13016139999999995,-0.28728259999999994,0.14071399999999998,52.350326,4.925284,3.696717,3.27,221.800003,3.790092,2.5,1,0,0,0,0,0
27.5,-0.06957100000000002,-0.3272784,9.513085,0.015087999999999999,-0.05167759999999999,-0.043034,0.15555539999999998,-0.22294300000000006,0.005664800000000003,,,,,,,,1,0,0,0,0,0
28.0,0.5612368000000001,-0.21625119999999995,10.453165000000002,-0.0063528000000000005,-0.0377502,0.1619968,-1.205732,0.363224,-1.289701,52.350307,4.92525,3.624894,2.89,228.199997,3.790092,2.5,1,0,0,0,0,0
28.5,0.12197399999999987,0.7004388,10.380782400000001,0.0278315,0.133928,-0.2848075,-1.205732,0.363224,-1.289701,,,,,,,,1,0,0,0,0,0
29.0,-0.5312664,-0.13244259999999994,10.0500344,0.006780400000000001,-0.1425718,0.14324360000000003,-1.240073,-0.03212780000000002,-0.6927146000000001,52.350288,4.925212,3.211271,3.51,229.100006,3.790092,2.5,1,0,0,0,0,0
29.5,0.0943970000000001,0.6534800000000001,8.7925466,0.001038600000000002,0.0907414,-0.049326,0.053702000000000034,-0.2894672,0.06579339999999997,,,,,,,,1,0,0,0,0,0
30.0,-0.08991039999999997,-0.12251239999999987,9.7262256,-0.0029016,0.016890000000000006,-0.05903860000000001,1.1457084,0.1256974,-0.4625946,52.350267,4.925173,3.282019,3.4,229.399994,3.790092,2.5,1,0,0,0,0,0
30.5,1.0520044,0.16624119999999998,11.5506936,0.03905575,0.14091475,-0.144198,1.28583,0.089225,-0.58587,,,,,,,,1,0,0,0,0,0
31.0,-0.2795414,0.9879966,8.255058600000002,0.0060472,0.1433658,-0.2747894,1.28583,0.089225,-0.58587,52.350247,4.925133,3.376695,3.34,229.100006,3.790092,2.5,0,0,0,1,0,0
31.5,-1.7421543999999998,0.35144600000000004,9.1689974,0.054273800000000004,0.1279724,-0.47368140000000003,1.5832226,-0.0855248,0.42279120000000003,,,,,,,,0,0,0,1,0,0
32.0,-1.5424732,-2.0123040000000003,12.1645122,0.15811779999999998,0.127209,,1.8706234,-0.1975826,0.4636828,52.350232,4.925088,3.294677,3.59,239.300003,3.790092,2.5,0,0,0,1,0,0
32.5,-2.1646669999999997,-3.8614178,14.3405446,0.1912335,-0.011377250000000002,-0.5431195,1.743255,-0.339634,0.6148859999999999,,,,,,,,0,0,0,1,0,0
33.0,-1.4178072,-0.3533002000000002,10.3613408,0.20628339999999998,-9.160000000000834e-05,,1.7390162000000005,-0.18673580000000006,0.0015895999999999454,52.350227,4.925033999999999,3.699425,3.86,263.399994,3.790092,2.5,0,0,0,1,0,0
33.5,-2.273301,-1.5123238,9.5859466,0.10708140000000002,,-0.005283600000000005,-0.11510959999999995,0.13871239999999982,0.14563979999999999,,,,,,,,0,0,0,1,0,0
34.0,1.2718450000000001,2.8057044,9.049117,-0.0065359999999999975,-0.08945860000000001,0.14819179999999998,-1.2456022,-1.8420898,1.0496206,52.350235,4.924982,3.860906,3.11,285.0,3.790092,2.5,1,0,0,0,0,0
34.5,-2.6639296000000003,-2.8698918,10.8454688,0.040499199999999985,-0.0343296,-0.1218028,0.18328680000000006,-1.0034174,1.1905109999999997,,,,,,,,1,0,0,0,0,0
35.0,0.12460619999999993,1.6575678,9.2292364,0.011338749999999995,-0.13740249999999998,0.099568,-0.461531,-0.9213864,0.458165,52.350255,4.924939,2.964181,3.24,304.799988,3.790092,2.5,1,0,0,0,0,0
35.5,0.8304889999999999,-2.9336604,14.6847526,-0.015423799999999991,0.0071774,0.1466948,-0.8977219999999999,-1.2717889999999998,1.319264,,,,,,,,1,0,0,0,0,0
36.0,1.4940783999999998,-0.9093326000000004,11.435539,0.017409200000000003,0.0886032,-0.003329200000000005,-0.8977219999999999,-1.2717889999999998,1.319264,52.350279,4.924903,2.6050020000000003,2.98,312.0,3.790092,2.668912,1,0,0,0,0,0
36.5,-1.1063813999999998,-0.4823330000000006,11.3842728,-0.053265800000000016,-0.08796200000000001,0.1612636,-0.8302992,-0.6267037999999999,-0.15777600000000006,,,,,,,,1,0,0,0,0,0
37.0,0.6160919999999999,-0.5340181999999999,10.315159199999998,0.01355325,0.19772375,-0.185125,0.12570719999999996,-0.2801756,-0.2378176,52.350306,4.924867,1.914711,3.4,317.100006,3.790092,2.825718,1,0,0,0,0,0
37.5,0.1688136,0.4969892,8.7631146,0.025502799999999992,-0.05219680000000001,-0.12067280000000002,-0.143849,0.316594,-0.8730319999999999,,,,,,,,1,0,0,0,0,0
38.0,1.4220542,-1.6029518000000005,11.6879816,-0.009468199999999993,-0.0412322,-0.02852660000000002,0.009634600000000005,1.3211392,-1.3564193999999998,52.350333,4.924828,1.818232,3.53,316.399994,4.02,3.1094630000000003,1,0,0,0,0,0
38.5,-0.964367,1.135573600000001,10.9402848,0.0273048,0.022143,0.1446794,-1.0511216,-0.3427135999999999,-1.4325143999999999,,,,,,,,1,0,0,0,0,0
39.0,1.2894326,2.901656,5.7416374,-0.03164950000000001,-0.037147000000000006,-0.000840249999999999,-0.7244945999999999,0.970915,-2.6503254000000003,52.350358,4.924788,1.064215,3.24,314.0,3.790092,3.039259,1,0,0,0,0,0
39.5,1.2836894,0.14584220000000006,9.0949992,0.021563,0.0011300000000000025,0.031428199999999996,-0.8775042000000001,-0.36619,-1.5683952,,,,,,,,1,0,0,0,0,0
40.0,-0.31393819999999995,1.1769698000000002,9.689495800000001,-0.00552800000000001,0.0693922,-0.12021480000000001,0.1926314000000001,-0.6425662,0.07227380000000001,52.35038,4.924747,1.209303,3.31,313.899994,3.790092,3.072779,1,0,0,0,0,0
40.5,-0.6348756,3.739563,4.5607202,-0.021440999999999998,-0.028678999999999993,0.0389108,0.369845,-1.2557201999999998,1.1407892,,,,,,,,1,0,0,0,0,0
41.0,-0.7056431999999999,2.1968504,6.871409,0.08478560000000002,-0.016951000000000008,-0.0368342,0.387855,-1.540578,1.812037,52.350401,4.924708,1.090964,3.15,315.0,3.927251,3.238699,1,0,0,0,0,0
41.5,-2.3665616000000003,-0.94014,10.341360599999998,-0.025999000000000005,0.051501999999999985,-0.16779199999999994,-0.1041016,-1.43555,1.3929248,,,,,,,,1,0,0,0,0,0
42.0,0.24095739999999996,-2.4361926,13.319527799999998,-0.0346656,-0.034451800000000005,0.02183760000000001,-0.3098054,-0.3769004,-0.15238899999999994,52.350422,4.924674,0.7584529999999999,3.03,318.700012,4.1476180000000005,3.343386,1,0,0,0,0,0
42.5,-2.0729022,1.0714462,8.223473199999999,-0.014415999999999997,0.025838999999999997,-0.0383,-0.5993166000000001,-1.3433056,-0.05163100000000004,,,,,,,,1,0,0,0,0,0
43.0,-1.3143774,-3.3390644000000003,13.4301954,-0.006689000000000007,-0.0252586,-0.017959000000000006,-1.091308,-1.81976,0.317895,52.350442,4.924642,0.491313,2.92,320.600006,4.3830550000000015,3.558097,1,0,0,0,0,0
43.5,0.09242279999999994,0.6029909999999997,9.5333044,0.007101250000000003,-0.13259225,0.1867665,-1.091308,-1.81976,0.317895,,,,,,,,1,0,0,0,0,0
44.0,0.5648255999999999,-1.3508082000000003,10.4409026,-0.027488200000000008,0.06575779999999999,0.0014660000000000007,-0.3115796,-0.17679780000000006,0.0805488,52.350463,4.9246050000000015,0.970508,3.37,318.399994,4.469079,3.632758,1,0,0,0,0,0
44.5,-0.9317652,0.03529439999999997,9.588818199999999,0.06820100000000001,0.04584400000000001,-0.0126752,-0.13572639999999994,0.1384644000000001,-0.18518160000000006,,,,,,,,1,0,0,0,0,0
45.0,-0.5921038000000001,-0.10965099999999993,8.7327856,0.002076800000000004,-0.0758062,0.07803579999999999,-0.115351,1.302169,-1.118247,52.350485,4.924562,1.2494459999999998,3.45,315.299988,4.265952,3.675629,1,0,0,0,0,0
45.5,-0.7024729999999999,-0.6606583999999998,10.2840522,0.012560250000000002,0.08620575,-0.07192749999999999,-0.115351,1.302169,-1.118247,,,,,,,,1,0,0,0,0,0
46.0,-1.5677173999999998,0.94355,7.678507799999999,-0.0640168,0.0144466,-0.0952004,-0.04387500000000001,0.2554420000000001,-0.14402800000000002,52.350507,4.9245199999999985,1.671572,3.38,315.299988,4.334064,3.784335,1,0,0,0,0,0
46.5,-0.3224925999999999,0.9126823999999998,7.6597241999999985,-0.0025044000000000177,-0.043583799999999985,0.004581399999999994,0.4176101999999999,-0.17457000000000006,0.08193960000000003,,,,,,,,1,0,0,0,0,0
47.0,0.11736779999999987,-0.33499540000000005,10.9365754,0.0503034,0.023212199999999995,0.08738180000000002,-1.78605,-1.5338379999999998,-0.4638310000000001,52.350532,4.92448,1.045547,3.57,319.200012,4.294533,3.901777,1,0,0,0,0,0
47.5,-0.05916260000000007,-1.1682356000000003,11.145708,0.019028,-0.0024433999999999984,-0.029106999999999994,-1.78605,-1.5338379999999998,-0.4638310000000001,,,,,,,,1,0,0,0,0,0
48.0,-0.3853041999999999,1.1715857999999997,8.453902199999998,-0.07146899999999999,-0.009658999999999994,-0.015653,-0.5550602000000001,-1.265177,-0.11255700000000006,52.350558,4.924442,0.397857,3.51,321.700012,4.4517190000000015,,1,0,0,0,0,0
48.5,0.7876576,1.8994824000000008,6.6184878,0.0458136,0.0120946,-0.050242199999999994,0.1193104,0.10107299999999997,-0.2025992,,,,,,,,1,0,0,0,0,0
49.0,-0.6333204000000001,1.2369698000000002,7.155078200000001,-0.0018326000000000009,-0.05317420000000002,0.20243480000000005,-1.0369704,-0.8118401999999999,0.5559185999999998,52.350582,4.9244059999999985,0.483747,3.26,320.299988,4.605299,,1,0,0,0,0,0
49.5,-0.5655435999999998,-0.394098,11.661959399999999,-0.055098400000000006,0.0998736,-0.1245518,-1.180754,-1.277034,1.254633,,,,,,,,1,0,0,0,0,0
50.0,-2.5264616,1.5040686,7.3354371999999985,0.09086375,-0.09533025,-0.011262500000000022,-1.1225558000000002,-1.1299266000000001,0.8816733999999998,52.350606,4.924367,-0.114081,3.57,315.799988,4.3588879999999985,,1,0,0,0,0,0
50.5,-0.6465409999999998,0.5130212000000001,7.850552,-0.034757199999999995,0.0029319999999999984,0.07941019999999999,-0.021628,-0.059670600000000025,0.2844742,,,,,,,,1,0,0,0,0,0
51.0,-0.3412164000000001,0.3600004000000003,8.4638326,0.01890580000000001,-0.0015270000000000047,-0.06630739999999999,-0.539389,0.7435596,-1.0144794,52.350629,4.924328,-0.764768,3.02,314.100006,4.470244,,1,0,0,0,0,0
51.5,1.3224532,0.5758325999999998,8.956335200000002,-0.016340200000000003,-0.009743,0.05079199999999999,-0.863325,1.224104,-1.316497,,,,,,,,1,0,0,0,0,0
52.0,1.1533406000000002,-0.8194221999999997,11.6366554,0.034436500000000016,0.04100325,-0.009086499999999996,-0.863325,1.224104,-1.316497,52.350653,4.924288,-1.433029,3.68,315.799988,4.927724,,1,0,0,0,0,0
52.5,-0.17174479999999998,-0.09002999999999993,10.0540426,-0.000488799999999999,-0.023945400000000002,0.029137600000000007,-0.3989860000000001,0.11669020000000005,-0.25093020000000005,,,,,,,,1,0,0,0,0,0
53.0,0.8718845999999999,-1.5394224,13.572628400000001,0.013469199999999995,0.05790860000000001,-0.0497538,-0.03285019999999998,0.017988599999999976,0.0022732000000000195,52.350679,4.924247,-0.430636,3.54,316.600006,4.88658,,1,0,0,0,0,0
53.5,-1.0769496000000005,0.8230114000000001,7.090412400000001,-0.10714260000000002,-0.0002138000000000029,-0.07195779999999999,-0.16606,2.812612,-1.6597630000000003,,,,,,,,1,0,0,0,0,0
54.0,0.3611366,-0.3646662000000004,8.582696,0.1115714,-0.0481652,-0.0421484,-0.16606,2.812612,-1.6597630000000003,52.350705,4.924208,0.197856,3.47,317.700012,5.504563,,1,0,0,0,0,0
54.5,1.1176278,-3.0686156,14.701023799999998,-0.045279249999999986,-0.06959850000000001,0.231778,-0.5402698,1.3077924000000003,-0.7456646000000001,,,,,,,,1,0,0,0,0,0
55.0,0.6679565999999999,4.8286562,1.9881964000000003,0.0389416,0.01924159999999999,-0.1182598,0.06074000000000001,-0.2604346,0.16668219999999995,52.35073,4.924168,0.632746,3.79,315.600006,5.032032,,1,0,0,0,0,0
55.5,0.5708080000000002,-0.14853419999999992,8.580243,-0.017989599999999994,0.1062876,0.02055500000000001,0.5711071999999999,0.5137808,-0.8500555999999999,,,,,,,,1,0,0,0,0,0
56.0,0.003409999999999913,-1.3505090000000002,11.5752196,-0.0107204,-0.022082,-0.1237882,1.951022,1.136148,-2.147642,52.350755,4.924126,0.696477,3.6,315.799988,4.9411510000000005,,1,0,0,0,0,0
56.5,0.13579299999999994,-0.4394418,12.0542624,0.040812250000000015,-0.13679175,0.149314,1.951022,1.136148,-2.147642,,,,,,,,1,0,0,0,0,0
57.0,-0.4119842000000001,3.0098717999999995,6.409294999999999,-0.06120680000000001,0.056503599999999994,-0.1184738,0.5030648,-0.27678079999999994,-0.042497599999999934,52.350779,4.924086,0.825151,3.78,315.299988,4.810431,,1,0,0,0,0,0
57.5,-0.973879,3.4803008,2.7325437999999997,0.0903138,-0.06710139999999999,0.1280338,-0.7149631999999999,-0.30854980000000004,0.208168,,,,,,,,1,0,0,0,0,0
58.0,0.8975477999999999,2.1598216,6.696673199999998,-0.0202498,0.039857800000000006,0.0941316,0.17599,-1.6030830000000005,2.252023,52.350804,4.924045,1.1775790000000002,3.8,314.700012,4.468732,,1,0,0,0,0,0
58.5,1.2542578000000002,0.6732802000000001,10.005767,0.089489,0.16179825000000006,-0.15660600000000002,0.17599,-1.6030830000000005,2.252023,,,,,,,,1,0,0,0,0,0
59.0,-0.319741,-1.524288,10.5790876,-0.039094199999999996,-0.1458092,0.005375400000000002,-0.33726540000000005,-0.5946490000000001,0.7615011999999999,52.350827,4.924003,1.367468,3.61,314.600006,4.644188,,1,0,0,0,0,0
59.5,-0.9643674,-2.324986,12.7057684,0.040499400000000005,0.05989360000000001,0.0780358,0.13599160000000002,-0.020866400000000014,0.15806939999999994,,,,,,,,1,0,0,0,0,0
60.0,-1.2633504,-0.8503494,13.336397,-0.0220516,0.0306344,-0.13811259999999995,-0.21570599999999998,-0.5563819999999999,-0.125716,52.350852,4.923962,1.4005610000000002,3.95,314.0,4.2921010000000015,,1,0,0,0,0,0
60.5,1.261556,2.6564520000000003,5.7205808,-0.0031457999999999985,-0.0565952,0.07937979999999999,-0.21570599999999998,-0.5563819999999999,-0.125716,,,,,,,,1,0,0,0,0,0
61.0,0.6505487999999999,-1.5317056000000002,12.9038346,-0.04993675,0.08704550000000001,-0.14160199999999998,-0.07813459999999997,-0.4421178,-0.26788959999999995,52.350877,4.923921,1.23767,3.65,315.100006,4.006835,3.960543,1,0,0,0,0,0
61.5,-0.9541382000000004,0.2635691999999999,10.292367599999999,0.021257400000000003,-0.1141978,0.030145599999999995,-0.7211924,0.3069462,-0.04980500000000003,,,,,,,,1,0,0,0,0,0
62.0,1.4861821999999998,-1.0284951999999998,11.0909124,0.0054976000000000105,0.065727,-0.058519199999999987,0.6177166000000001,-0.03914239999999998,0.24754479999999995,52.35090200000001,4.923883,1.170544,3.72,316.5,3.802786,3.604178,1,0,0,0,0,0
62.5,-0.34540380000000004,0.2272584000000002,8.1191464,0.06551339999999999,-0.0383612,0.1656312,1.44331,0.682858,-0.139181,,,,,,,,1,0,0,0,0,0
63.0,-0.6979861999999999,1.9626531999999999,8.192187200000001,-0.08502225,0.01771475,-0.1001025,1.44331,0.682858,-0.139181,52.350927,4.923845,1.679836,3.76,316.799988,3.790092,3.454867,1,0,0,0,0,0
63.5,0.03212360000000003,-0.21774699999999975,9.6876416,0.038116800000000006,-0.04770719999999999,0.015942999999999985,0.37450159999999993,0.02395699999999996,0.12093920000000002,,,,,,,,1,0,0,0,0,0
64.0,-1.2616755999999998,-2.4542585999999997,15.639848,0.0294428,0.10057580000000002,0.0219598,0.14882460000000006,-0.4083180000000001,0.447948,52.350952,4.923807,1.7235509999999998,3.78,317.299988,3.790092,3.248986,1,0,0,0,0,0
64.5,0.5991628000000001,1.184208,9.351090800000001,-0.06826219999999998,-0.06636879999999999,-0.1095248,0.038191,-2.960636,2.831816,,,,,,,,1,0,0,0,0,0
65.0,2.041915,4.1353358,4.602773600000001,0.06484139999999998,-0.050303200000000006,0.1536892,0.038191,-2.960636,2.831816,52.350976,4.923769999999998,2.1765060000000003,3.64,317.100006,3.790092,3.212114,1,0,0,0,0,0
65.5,2.5748566000000004,-1.092802,14.1814226,-0.04046875,0.0429505,0.016225749999999997,-0.028964199999999975,-1.3116307999999997,1.5213236,,,,,,,,1,0,0,0,0,0
66.0,-0.15661019999999998,0.1298705999999999,9.389555999999999,0.009346000000000005,-0.031092,0.1400674,-0.511433,-0.5428742000000001,0.6044634,52.351000000000006,4.923731,2.237186,3.82,316.100006,3.790092,2.807684,1,0,0,0,0,0
66.5,1.085743,-1.6786848,13.198271799999999,0.0297786,0.1294692,-0.038911000000000015,1.1080564,0.08923640000000012,-0.6890890000000001,,,,,,,,1,0,0,0,0,0
67.0,-1.0555938,-2.2304696,11.0048308,0.028251599999999995,-0.090772,-0.08695420000000005,1.398273,-0.692398,-0.206076,52.351024,4.9236900000000015,2.832716,3.84,314.299988,3.790092,2.653225,1,0,0,0,0,0
67.5,-0.6385248,-0.17210359999999994,10.5144814,-0.031802,0.0731875,-0.14973374999999994,1.044694,-0.6262179999999999,-0.20006179999999998,,,,,,,,1,0,0,0,0,0
68.0,0.8033301999999999,-0.12323039999999982,9.4753984,0.029900999999999994,-0.0322222,0.0367118,-0.15616780000000002,-0.394882,0.2511118,52.351048,4.92365,2.731958,3.7,315.399994,3.790092,2.678046,1,0,0,0,0,0
68.5,-1.5366107999999998,,2.222812200000001,-0.023944999999999998,-0.07614220000000001,0.0795018,-0.4834440000000001,0.6584788,-2.0296846000000004,,,,,,,,1,0,0,0,0,0
69.0,-1.4274383999999998,-0.6505485999999999,12.288341,0.0221128,0.12247480000000001,-0.056259200000000016,-0.034186,-0.174171,-2.2724830000000003,52.351072,4.923613,2.816443,3.53,318.299988,3.790092,2.915066,1,0,0,0,0,0
69.5,-0.901795,-0.8899507999999999,10.8019788,-0.044744499999999986,-0.042339499999999995,-0.07284350000000002,-0.034186,-0.174171,-2.2724830000000003,,,,,,,,1,0,0,0,0,0
70.0,0.8583656000000002,1.7432311999999996,4.6995636,0.07681400000000001,-0.034177,-0.0553428,0.32541279999999995,0.06608259999999996,-1.0065424000000005,52.351098,4.9235760000000015,2.50402,3.71,321.399994,4.047611,3.269295,1,0,0,0,0,0
70.5,2.842793,-0.4925026000000002,11.3690182,-0.0401938,0.0485316,0.110319,-0.3669281999999999,0.14164379999999993,-0.41556960000000015,,,,,,,,1,0,0,0,0,0
71.0,-0.08614139999999991,-0.0010170000000005786,9.1110312,-0.003970800000000003,-0.0770586,-0.030573000000000006,0.147655,0.540091,-0.8091329999999999,52.351123,4.923539,2.352118,3.52,318.899994,3.790092,3.10403,1,0,0,0,0,0
71.5,-0.9453444,-1.6865812000000004,12.386686,0.015057400000000004,0.002504599999999996,0.10002620000000002,0.147655,0.540091,-0.8091329999999999,,,,,,,,1,0,0,0,0,0
72.0,1.3476974,-0.1984248000000001,9.369276800000002,-0.015309499999999997,0.02011949999999999,-0.03985750000000001,0.006003400000000036,0.37555959999999994,-0.47683240000000005,52.351147,4.9235,2.22951,3.55,316.5,3.790092,3.10143,1,0,0,0,0,0
72.5,0.8340181999999999,1.1953943999999999,8.621998,0.001435599999999998,-0.040285400000000006,0.008582400000000006,-0.270402,-0.090113,0.05270020000000003,,,,,,,,1,0,0,0,0,0
73.0,-1.597568,1.7233108,7.6770122,-0.024250600000000004,0.12635380000000002,-0.0361622,0.5215515999999999,0.5542014000000001,-0.6159766,52.351172,4.923461,1.936677,3.57,314.799988,3.877769,3.3284830000000003,1,0,0,0,0,0
73.5,0.27619160000000004,-0.5959321999999999,8.850093800000002,0.056381,-0.04718819999999999,-0.1208866,0.46322700000000006,0.8870479999999998,-1.377358,,,,,,,,1,0,0,0,0,0
74.0,-1.6350756000000002,-6.4448881999999985,18.5743456,0.02943525,-0.04428625,-0.14186949999999998,0.46322700000000006,0.8870479999999998,-1.377358,52.351198,4.923421,1.862837,3.66,315.600006,4.181774,3.605932,1,0,0,0,0,0
74.5,-0.5207379999999999,2.0069798000000003,6.732087,-0.0913828,-0.1006982,0.3434486,-1.1809796000000001,0.18000599999999994,-0.6950930000000002,,,,,,,,1,0,0,0,0,0
75.0,2.5000212000000004,1.9114466,6.1446492,0.0657576,0.05619779999999999,-0.0174702,-0.07598880000000005,0.07460139999999997,-0.09554160000000003,52.351223,4.923383,2.612912,3.62,316.399994,3.790092,3.347494,1,0,0,0,0,0
75.5,-0.10133599999999997,0.4342972000000003,11.0105138,-0.010659199999999995,0.1253766,-0.1208256,-0.745833,0.5019319999999999,-1.35612,,,,,,,,1,0,0,0,0,0
76.0,0.1673184,-5.977151200000001,14.9404256,0.07215649999999997,-0.1060585,-0.091016,-0.745833,0.5019319999999999,-1.35612,52.351247,4.923348000000002,2.129588,3.28,315.700012,3.810551,3.273707,1,0,0,0,0,0
76.5,0.018544600000000043,0.16558319999999985,8.152526,-0.07211060000000001,-0.050272800000000006,0.1570796,-0.0892018,0.25884159999999995,-0.658609,,,,,,,,1,0,0,0,0,0
77.0,0.09206380000000004,3.9568912,7.8145402000000015,-0.002168600000000004,0.1193902,-0.10121760000000002,-0.280642,0.0041221999999999474,-0.10735140000000007,52.351272,4.923309,2.906335,4.02,315.899994,3.790092,3.137483,1,0,0,0,0,0
77.5,0.10444679999999992,-0.8793025999999997,11.380862600000002,0.012217,-0.044683400000000005,-0.05213559999999999,0.714252,-2.035484,1.653836,,,,,,,,1,0,0,0,0,0
78.0,-0.7016353999999997,1.4471790000000002,8.110831399999999,0.013194399999999998,0.006169600000000001,0.10537120000000004,0.714252,-2.035484,1.653836,52.351298,4.92327,3.091224,3.72,315.100006,3.790092,3.004766,1,0,0,0,0,0
78.5,0.6489932000000002,-3.376093200000001,14.567384999999998,0.013286000000000006,-0.05302925,-0.08464074999999997,0.6242154000000001,-1.8559358,1.4765112,,,,,,,,1,0,0,0,0,0
79.0,0.4864609999999999,-0.20865440000000007,10.645728000000002,-0.026235799999999983,0.026235800000000004,0.04471399999999999,-0.27738820000000003,-0.2373638,-0.02903139999999995,52.351324,4.923231,2.947867,3.82,316.299988,3.790092,3.159857,1,0,0,0,0,0
79.5,-0.0927816,1.8369100000000005,7.4384478,0.015363000000000009,-0.0456304,0.0022601999999999982,-0.017523399999999998,-0.14621499999999998,-0.289418,,,,,,,,1,0,0,0,0,0
80.0,-0.215354,-1.277887,11.2512314,0.04899,0.033779800000000006,0.02113540000000001,0.184211,-0.7486468000000001,0.34147180000000005,52.351347,4.923195,2.355351,3.29,315.799988,4.0144199999999985,3.3329150000000003,1,0,0,0,0,0
80.5,0.9128620000000002,1.8068204,7.139524800000001,-0.06467350000000001,0.033100250000000005,-0.012064249999999995,-1.4108854000000002,1.8553082000000003,-1.2107298,,,,,,,,1,0,0,0,0,0
81.0,-1.0743174,0.3839284,10.5644314,-0.02189920000000001,-0.004642600000000001,-0.045355599999999996,-0.0320733999999999,-2.3316976000000005,3.2540697999999995,52.351371,4.923159,2.548418,3.73,317.399994,4.176686,3.474503,1,0,0,0,0,0
81.5,0.04558339999999994,2.9441289999999998,6.773064,0.0385752,0.037536599999999996,0.006475000000000003,-0.6592326000000001,-0.9099182,0.11166380000000027,,,,,,,,1,0,0,0,0,0
82.0,-0.9209974,0.5603988,9.645767,-0.011605999999999995,-0.1205202,-0.11783259999999998,-1.799759,-2.0390210000000004,3.3921466,52.351397,4.923121,2.63382,3.65,316.799988,3.790092,3.230109,1,0,0,0,0,0
82.5,0.2743372,-1.2922438,10.6064256,0.079013,0.003176599999999985,0.2620842,-1.523721,,,,,,,,,,1,0,0,0,0,0
83.0,0.14135599999999995,-1.734258,14.584134400000002,-0.06513175,0.14488525000000002,-0.06337525,-1.1700274,,,52.351423,4.923081,2.832809,3.71,316.799988,3.790092,3.216667,1,0,0,0,0,0
83.5,-0.566022,1.7710475999999995,8.346823200000001,0.017042599999999998,-0.0719884,-0.17702320000000002,0.4861644,-0.4889626000000001,-0.024690600000000028,,,,,,,,1,0,0,0,0,0
84.0,2.0351554,2.0904298,8.4100538,0.0217766,-0.02141,0.07321,-0.4731368,-1.3163744000000002,0.370063,52.351445,4.923047,3.053219,3.03,315.100006,3.982484,3.3583550000000004,1,0,0,0,0,0
84.5,1.147538,-1.7680563999999999,11.672189,-0.0084296,-0.042270800000000004,0.1130372,0.9768244,-0.3589053999999997,0.20433059999999972,,,,,,,,1,0,0,0,0,0
85.0,0.5525026000000001,3.396432400000001,3.6166918,-0.00649050000000001,0.06455925,0.011529750000000005,0.8508066000000001,0.2297007999999999,1.190257,52.351468,4.923009,2.8678060000000003,3.92,314.899994,3.790092,3.214063,1,0,0,0,0,0
85.5,-1.6171892,-1.5305096000000002,11.4613212,-0.0057417999999999905,0.0919632,-0.22045479999999998,2.6258642000000005,-0.8080919999999999,3.0105122000000004,,,,,,,,1,0,0,0,0,0
86.0,1.2760326000000002,0.5929412000000001,9.7809018,0.0211356,-0.1000264,-0.006108599999999997,-0.2024868,-0.3608471999999999,-0.2505402000000001,52.351493,4.922967,3.425739,3.56,314.399994,3.790092,3.099367,1,0,0,0,0,0
86.5,-2.2112076000000007,5.5542196000000015,1.399502,0.017378600000000004,0.02373140000000001,0.12323839999999996,0.8121778000000001,-2.455275,2.9965444,,,,,,,,1,0,0,0,0,0
87.0,1.8701704000000003,-2.190210200000001,12.5093176,0.051502000000000006,-0.085366,-0.02661,0.850142,-3.069528,3.574604,52.351516,4.922928,3.629607,3.59,315.899994,3.790092,2.991358,1,0,0,0,0,0
87.5,-0.3519243999999999,-0.9043076,10.501859399999999,-0.055434400000000016,-0.0012828000000000062,0.11169360000000003,0.850142,-3.069528,3.574604,,,,,,,,1,0,0,0,0,0
88.0,-0.9939188,3.4816168,5.048676199999999,-0.006383399999999996,0.1025918,-0.029626,-0.1518958,-0.23449980000000006,-0.3809624,52.351539,4.922889,3.605324,3.32,315.399994,3.790092,3.047703,1,0,0,0,0,0
88.5,0.8297111999999999,0.10995020000000012,10.774521600000002,0.01960800000000001,0.02275420000000001,-0.1413802,0.1656976,-0.8735370000000001,0.4369572,,,,,,,,1,0,0,0,0,0
89.0,0.4573282,-0.4497311999999999,12.0035946,0.027457599999999995,-0.0798072,0.08429679999999999,0.141782,-1.275774,1.348341,52.351563,4.92285,3.737233,3.68,316.799988,3.930124,3.267571,1,0,0,0,0,0
89.5,0.3701696000000001,0.27349959999999995,9.3485786,0.049173000000000015,0.00019075000000000344,-0.0013745000000000007,0.141782,-1.275774,1.348341,,,,,,,,1,0,0,0,0,0
90.0,1.3345372000000002,-0.6528816,11.5876026,-0.056534,-0.012736399999999998,0.0536324,0.21590320000000002,-0.6295918,0.2453264,52.351587,4.922812,4.046571,3.49,315.5,3.790092,3.039124,1,0,0,0,0,0
90.5,0.6466004,1.2000604,9.278708199999999,0.0072079999999999965,0.0375976,0.07211039999999999,-0.30233920000000003,-0.2958882,-0.090601,,,,,,,,1,0,0,0,0,0
91.0,0.6059226000000001,0.5099701999999997,7.5558758,0.04224,0.02641920000000001,-0.1884462,0.968856,-0.59518,1.7516450000000003,52.35161,4.922776,4.642714,3.35,316.700012,3.790092,3.07526,1,0,0,0,0,0
91.5,-2.1649064000000005,-2.1061624,11.866486,-0.020386999999999992,0.005382999999999995,-0.07143074999999999,0.968856,-0.59518,1.7516450000000003,,,,,,,,1,0,0,0,0,0
92.0,1.7608781999999998,-0.8849858000000002,12.4044524,-0.0440728,-0.1100442,0.1182904,0.3025732,0.03587499999999997,0.4889288000000002,52.351634,4.922738,4.589381,3.76,315.799988,3.82972,3.133939,1,0,0,0,0,0
92.5,1.2476178,0.3130412,10.552646800000002,0.010109400000000008,-0.0417514,0.12223039999999999,-0.04259420000000005,-0.5988701999999999,0.3388104,,,,,,,,1,0,0,0,0,0
93.0,2.4525832000000003,-1.6849657999999998,13.649617600000001,0.004306400000000004,0.18359,-0.1199398,0.765881,-1.1818605999999998,1.0586212,52.351658,4.9226980000000005,4.094397,3.37,315.899994,3.790092,3.086969,1,0,0,0,0,0
93.5,-0.3123228,1.6609778000000002,8.1461254,0.00664300000000001,-0.16061475,0.039972500000000015,1.351121,-3.570778,3.2057139999999995,,,,,,,,1,0,0,0,0,0
94.0,1.12684,0.16259220000000044,8.696714199999999,0.0043370000000000014,0.098438,0.009254200000000004,1.351121,-3.570778,3.2057139999999995,52.35168,4.922662,3.435045,3.21,315.0,3.790092,3.168833,1,0,0,0,0,0
94.5,0.12771720000000006,-2.8475787999999995,11.986486,0.036039800000000004,-0.025289,-0.10024000000000002,-0.1546108,0.08197199999999996,-0.4431998000000001,,,,,,,,1,0,0,0,0,0
95.0,1.1667404,0.7948956,10.851032,-0.017165,0.0292596,-0.1861252,0.9827872,-0.5043966,0.365404,52.351703,4.922628,3.647277,3.39,317.100006,3.856395,3.250259,1,0,0,0,0,0
95.5,0.31052840000000004,1.0827524,7.710511800000003,0.006108399999999999,-0.0361622,0.098316,1.095982,1.062056,-0.990314,,,,,,,,1,0,0,0,0,0
96.0,-0.4641478,1.3024132000000002,9.8158968,0.03546725,-0.14144925,0.030007750000000007,1.095982,1.062056,-0.990314,52.351727,4.9225900000000005,4.222607,3.74,317.399994,3.790092,3.035116,1,0,0,0,0,0
96.5,0.18604199999999968,-3.1695924,12.780603999999999,0.006719399999999998,0.0586412,0.006169799999999998,1.0215862000000002,-0.5612476,0.5747783999999999,,,,,,,,1,0,0,0,0,0
97.0,-1.3004394,-0.11264219999999997,8.180941,-0.008216000000000003,-0.1011258,0.1923862,-0.6446564,0.32743159999999993,-1.5638194,52.351751,4.922553,4.375268,3.44,317.100006,3.790092,2.979748,1,0,0,0,0,0
97.5,-0.006699799999999989,0.17659040000000018,9.7029554,-0.046790800000000014,0.055953599999999985,0.05109739999999998,-1.595093,-0.520358,0.734047,,,,,,,,1,0,0,0,0,0
98.0,0.8104492000000001,1.7270794000000005,9.334640199999999,0.0547855,0.19997625,-0.19295125,-1.595093,-0.520358,0.734047,52.351773,4.922518,4.100438,3.36,314.5,3.790092,3.007482,1,0,0,0,0,0
98.5,0.09888339999999997,-1.1657832000000001,13.074681600000002,0.005711599999999996,-0.12977460000000002,0.01792840000000001,-1.486579,-0.37682540000000003,0.5779764000000001,,,,,,,,1,0,0,0,0,0
99.0,0.16588239999999999,1.867,9.8648896,-0.008704799999999999,0.05140259999999999,-0.0929404,0.8240576,-0.412394,0.21037680000000009,52.351795,4.9224809999999986,4.754683,3.49,314.100006,3.790092,2.825282,1,0,0,0,0,0
99.5,-1.4464612,0.4514659999999999,9.732387200000002,-0.0229682,-0.018814000000000004,0.15411660000000002,-0.7502462000000001,0.6280864000000002,-0.7371108000000001,,,,,,,,1,0,0,0,0,0
100.0,-1.645903,-0.2885148000000001,11.0382702,0.068537,0.0712248,-0.18334580000000006,-0.684359,1.136133,-0.8145620000000001,52.351817,4.9224440000000005,4.832269,3.46,314.399994,3.790092,2.692721,1,0,0,0,0,0
100.5,-0.1595416,-0.3552744000000002,9.000243600000003,-0.07925749999999998,0.003665,-0.200129,-0.684359,1.136133,-0.8145620000000001,,,,,,,,1,0,0,0,0,0
101.0,-0.2778663999999999,1.6621742000000002,8.694321200000001,0.0406824,-0.1834066,0.3783282,-1.3023010000000002,0.14885540000000005,-0.23884,52.351838,4.922409,5.07526,3.27,316.600006,3.790092,2.779534,1,0,0,0,0,0
101.5,1.410868,0.17389839999999984,9.8694362,-0.0235786,0.0504864,-0.124124,0.33115559999999994,0.01707220000000002,-0.16683299999999998,,,,,,,,1,0,0,0,0,0
102.0,-0.2794816,0.1862216,9.481559599999999,0.05457919999999998,0.0935206,-0.04278960000000002,-0.361632,-1.469122,2.121095,52.35186,4.922372,5.2839480000000005,3.54,315.799988,3.790092,2.800558,1,0,0,0,0,0
102.5,1.908575,-3.3062228000000005,11.430932400000001,-0.07070549999999999,-0.046348000000000014,0.06230649999999997,-0.361632,-1.469122,2.121095,,,,,,,,1,0,0,0,0,0
103.0,0.1682752,-1.5217156000000005,12.8919304,-0.0149048,-0.022631799999999997,-0.08258660000000001,0.0816478,-1.1953054,1.7979709999999998,52.35188,4.922335,5.1650589999999985,3.08,316.0,3.790092,2.91322,1,0,0,0,0,0
103.5,-0.13088740000000004,4.2714878,2.199004,0.046210400000000006,0.090558,-0.07495099999999999,0.18343960000000006,-0.438201,0.049274600000000016,,,,,,,,1,0,0,0,0,0
104.0,-0.10570280000000007,1.2285350000000002,8.405387600000001,0.032924600000000005,-0.0876564,-0.024953200000000002,-0.12778819999999996,-0.7625012,0.2301122000000001,52.351902,4.9222980000000005,5.275299,3.68,315.899994,3.790092,2.895027,1,0,0,0,0,0
104.5,-0.0659819999999998,-1.0472787999999995,12.663236399999995,-0.053907000000000004,0.015767749999999997,0.15946925,0.406805,-1.547291,1.0442870000000002,,,,,,,,1,0,0,0,0,0
105.0,0.026620199999999983,-2.4652056,13.784992,0.023456599999999998,0.030206200000000002,-0.1623632,0.406805,-1.547291,1.0442870000000002,52.351927,4.922261,4.968368,3.52,318.899994,3.790092,2.728684,1,0,0,0,0,0
105.5,1.5120844000000002,1.3049858,9.845867000000002,0.0344212,-0.1209478,-0.04098759999999998,0.2613710000000001,-0.016251199999999955,-0.4250388000000001,,,,,,,,1,0,0,0,0,0
106.0,1.0263414000000002,1.6957934,7.9061254,-0.07321,-0.005100600000000001,0.23655059999999997,-0.3496026,-0.9739683999999998,0.8557174000000001,52.351951,4.922229,5.242187,3.21,320.399994,3.790092,2.520381,1,0,0,0,0,0
106.5,1.4493923999999998,-1.4910277999999997,11.761620400000002,0.08249480000000001,-0.006596999999999997,0.05735880000000001,-1.165141,-1.726932,1.7951099999999998,,,,,,,,1,0,0,0,0,0
107.0,1.7736797999999998,1.0415357999999997,9.2306724,-0.02634275,0.0708965,-0.1069365,-1.165141,-1.726932,1.7951099999999998,52.351974,4.922197,5.015028,3.17,320.0,3.790092,2.5,1,0,0,0,0,0
107.5,0.6342175999999999,-2.107239,12.9175934,0.0285264,0.004795000000000002,0.16465400000000002,-0.8677184000000001,-1.3515694,0.8933077999999999,,,,,,,,1,0,0,0,0,0
108.0,-0.5566901999999999,-0.3727421999999999,12.024053199999999,0.035704199999999985,-0.095445,0.11450339999999999,-0.5599044,-0.1897274,-0.2428180000000001,52.351999,4.922164,5.208464,3.38,319.299988,3.790092,2.5,1,0,0,0,0,0
108.5,1.7983856,3.051806,6.053303,-0.040468800000000006,0.232397,-0.047463000000000005,2.082052,1.272833,-2.268366,,,,,,,,1,0,0,0,0,0
109.0,-0.48077780000000003,0.4723431999999999,9.0742414,0.026648249999999974,0.09422300000000003,-0.34230350000000004,2.082052,1.272833,-2.268366,52.352021,4.922128,5.104349,3.21,315.100006,3.790092,2.5,1,0,0,0,0,0
109.5,0.4872984,-1.6868202,12.640085199999998,-0.07409600000000001,-0.247943,0.019424799999999985,1.47335,0.8968636000000001,-1.7736245999999998,,,,,,,,1,0,0,0,0,0
110.0,0.2178068,2.4808786,4.308995200000001,0.09083299999999997,0.1220168,-0.08655700000000001,1.0554232,-0.130141,-0.32893100000000003,52.352042,4.922092,5.610706,3.15,316.100006,3.790092,2.5,1,0,0,0,0,0
110.5,-1.7508881999999997,2.2904098,6.4495543999999985,-0.012889000000000006,0.02156300000000001,-0.10451599999999997,0.020972199999999976,-1.5454426,1.1680688,,,,,,,,1,0,0,0,0,0
111.0,0.8274381999999999,0.13674980000000012,8.903094800000002,0.026388599999999998,-0.0191194,-0.090436,0.63825,-2.499874,2.297943,52.352063,4.922057,6.088498,3.28,316.399994,3.790092,2.5,1,0,0,0,0,0
111.5,-0.5175675999999999,1.2651451999999999,7.889734599999999,-0.025350000000000008,-0.1455345,0.21181125,0.63825,-2.499874,2.297943,,,,,,,,1,0,0,0,0,0
112.0,1.8686748,-0.9294918,12.0384104,0.0190278,0.1279422,-0.10686760000000002,0.25089700000000004,-0.4403102,0.6048722,52.352086,4.922022,6.155345,3.34,322.0,3.790092,2.5,1,0,0,0,0,0
112.5,-1.3595419999999998,1.1829518,8.3441314,0.007177399999999995,0.0007939999999999975,-0.2686814,0.8172708000000001,-0.1725375999999999,-0.06731800000000003,,,,,,,,1,0,0,0,0,0
113.0,0.3163312,-2.7816563999999997,14.2383718,0.0038787999999999904,-0.1379904,0.28569340000000004,1.366355,-0.05699,-0.612267,52.35210900000001,4.921991,6.285364,3.04,322.799988,3.790092,2.5,1,0,0,0,0,0
113.5,0.23778679999999994,0.6056831999999999,9.0308118,-0.006795500000000004,0.033444,-0.0486005,1.366355,-0.05699,-0.612267,,,,,,,,1,0,0,0,0,0
114.0,0.7532008000000001,0.7724627999999999,10.1017796,0.011392399999999999,0.049417800000000005,-0.0938872,0.8987774,-0.1447816,-0.08802399999999999,52.352132,4.9219620000000015,6.417032,3.11,325.299988,3.790092,2.5,1,0,0,0,0,0
114.5,-1.7517258000000002,1.3831112000000003,6.961199800000001,0.015821,0.0344516,0.094101,0.023345199999999976,-0.6026634000000001,0.33556959999999997,,,,,,,,1,0,0,0,0,0
115.0,0.1048058,-0.5938985999999999,10.7919892,-0.025228,-0.08142579999999999,-0.057755799999999996,0.8399829999999999,0.798149,-1.054323,52.352156,4.921936,7.0759880000000015,3.11,327.700012,3.790092,2.557934,1,0,0,0,0,0
115.5,0.04265219999999994,0.8731410000000001,8.336833599999999,0.00736825,0.033023750000000004,0.09494875,0.8399829999999999,0.798149,-1.054323,,,,,,,,1,0,0,0,0,0
116.0,0.4066004,0.4949554000000001,10.5294364,0.0507002,0.05931340000000001,-0.23004499999999997,0.8388982,0.6386215999999999,-1.1423341999999999,52.352181,4.921908,7.414996,3.36,327.200012,3.790092,2.5,1,0,0,0,0,0
116.5,0.26416739999999994,-0.481017,9.882178,-0.038330800000000005,-0.13307320000000003,0.1351194,-0.25847040000000004,-0.21133579999999996,-0.032963599999999996,,,,,,,,1,0,0,0,0,0
117.0,-0.1995014,-1.9830518,12.3204646,0.0204328,0.041446,0.136677,-0.4627388,0.23755920000000005,-0.14302820000000002,52.352206,4.921878,7.156714,3.2,326.399994,3.790092,2.5,1,0,0,0,0,0
117.5,-0.9247065999999999,1.2315855999999994,8.526883,-0.007268999999999989,-0.0189364,-0.016889600000000005,-0.720208,0.749017,-0.474313,,,,,,,,1,0,0,0,0,0
118.0,1.0262218,2.4661028000000003,6.8151178,0.045966,0.0072537499999999954,-0.029053499999999993,-0.720208,0.749017,-0.474313,52.35223,4.921849,6.995659,3.2,323.399994,3.790092,2.5,1,0,0,0,0,0
118.5,0.6397214000000002,-1.0484151999999998,11.2040332,-0.07149960000000001,0.0208606,0.028954,0.03978300000000001,0.023217800000000004,-0.310973,,,,,,,,1,0,0,0,0,0
119.0,-0.9239286,-0.6608975999999999,9.981899,0.054395800000000015,0.016798200000000006,-0.0598628,-0.26486820000000005,-0.3481038,0.2796344000000001,52.352252,4.921821,7.23066,2.82,324.899994,3.790092,2.524632,1,0,0,0,0,0
119.5,0.8825926,0.01920220000000015,9.9725666,0.0209522,-0.0248004,0.08768699999999999,-1.8072580000000005,0.037369,0.093239,,,,,,,,1,0,0,0,0,0
120.0,-0.2781058000000001,-0.4382452000000005,10.662537400000001,-0.04287375,0.13908199999999998,-0.271865,-1.8072580000000005,0.037369,0.093239,52.352273,4.921792,7.402609,2.88,322.700012,3.790092,2.5,1,0,0,0,0,0
120.5,-0.5745166000000002,0.3072984,10.1257076,-0.003207000000000006,-0.1749464,0.1948908,-1.6143324,-0.31179100000000004,0.2268242,,,,,,,,1,0,0,0,0,0
121.0,1.5343976,0.15122620000000006,10.1787686,-0.011270000000000002,0.10240839999999998,-0.0918104,0.5233228000000001,-0.29753339999999995,0.32202840000000005,52.352294,4.921765,7.359653999999999,2.88,323.299988,3.790092,2.5,1,0,0,0,0,0
121.5,-0.6433101999999999,-2.5417758000000004,12.8254698,0.02721340000000001,-0.015240599999999997,-0.004031600000000008,-0.0365676,-0.36161740000000003,0.3515656,,,,,,,,1,0,0,0,0,0
122.0,-0.5155337999999999,1.825245,6.4314285999999985,-0.00973525,-0.06055,0.04844775,-0.239983,-0.8403219999999999,1.051647,52.352314,4.921738,7.160082000000001,2.84,323.299988,3.790092,2.5,1,0,0,0,0,0
122.5,0.5991028,1.6688142,7.6603824,0.0325584,-0.061084799999999974,0.0985908,-0.239983,-0.8403219999999999,1.051647,,,,,,,,1,0,0,0,0,0
123.0,-0.3671788,0.4900500000000001,9.9693368,-0.040652,0.028068400000000004,0.203351,-0.09937639999999999,0.18653540000000005,-0.215548,52.352335,4.921713,7.459841,2.79,323.700012,3.790092,2.5,1,0,0,0,0,0
123.5,-0.05371879999999996,-0.8489136,11.4645516,-0.0063832,0.17024299999999998,-0.2697502,0.5495447999999999,0.11781639999999995,-0.2386560000000001,,,,,,,,1,0,0,0,0,0
124.0,0.4130609999999999,0.5922234000000001,7.8969132,0.010048199999999992,-0.1336228,-0.08713739999999999,-0.307708,2.146541,-2.648099,52.352356,4.921687,7.2679,2.77,322.5,3.790092,2.5,1,0,0,0,0,0
124.5,0.9251847999999996,0.3832106,9.251549799999998,0.02130325000000001,-0.01771475,0.065475,-0.307708,2.146541,-2.648099,,,,,,,,1,0,0,0,0,0
125.0,0.9412766,0.3684348000000002,8.790093800000001,-0.0155462,0.0402852,0.102378,-0.18096400000000007,0.4134644,-0.6223286000000001,52.352377,4.921661,7.04947,2.89,322.399994,3.790092,2.5,1,0,0,0,0,0
125.5,1.429532,-1.6345969999999999,10.463873199999998,-0.0461802,-0.0058641999999999965,-0.10549340000000004,0.16360819999999998,-0.14935780000000004,0.10906219999999996,,,,,,,,1,0,0,0,0,0
126.0,-0.8532804,-3.1557142000000002,10.5218396,-0.0033595999999999995,-0.020188599999999998,0.148955,-1.160092,-1.360969,-0.641365,52.352399,4.921635,6.916550999999999,2.92,323.399994,3.790092,2.5,0,1,0,0,0,0
126.5,-0.4669594000000001,-1.883989,8.939525600000003,-0.02538825,0.04917325,-0.13759325,-1.160092,-1.360969,-0.641365,,,,,,,,0,1,0,0,0,0
127.0,-0.3612564000000001,-2.3228326000000004,10.258508999999998,0.045416399999999996,0.0158512,0.057847400000000014,-0.5765238,-1.7141452,-0.29693040000000004,52.352411,4.92162,7.0023149999999985,0.59,323.700012,3.790092,2.5,0,0,1,0,0,0
127.5,-0.31914279999999995,0.3217146,10.170991800000001,-0.0025348,-0.011453199999999998,0.04056020000000001,-0.0892068,0.8532385999999998,0.035431199999999996,,,,,,,,0,0,1,0,0,0
128.0,0.17545360000000004,-0.036311199999999995,10.0555978,0.0119116,0.0367424,-0.0547928,-0.27602140000000003,0.248763,0.08565260000000001,52.352414,4.9216190000000015,6.844175999999999,0.0,,3.790092,2.5,0,0,1,0,0,0
128.5,-0.6639486,0.5224128000000001,9.713902999999998,0.012293250000000002,0.01794375,0.026304499999999998,-0.5397930000000001,0.371091,0.090926,,,,,,,,0,0,1,0,0,0
129.0,-0.6322436,1.078924,9.5278606,0.009071,-0.0035124,-0.08182299999999999,-0.5397930000000001,0.371091,0.090926,52.352415,4.921621,6.823243,0.0,,3.790092,2.5,0,0,1,0,0,0
129.5,0.036849599999999996,0.8665606,10.497133400000001,0.0102316,-0.10894479999999998,0.35111479999999995,-0.2265878,0.4586222,0.0923502,,,,,,,,0,0,1,0,0,0
130.0,0.3606581999999999,1.6055242,9.3662856,-0.015881999999999997,0.103447,-0.09080239999999998,0.6134054,0.5614978,0.07958819999999997,52.352419,4.921617,6.679204,0.8,323.0,3.790092,2.5,0,0,1,0,0,0
130.5,-0.4495517999999999,-0.17491500000000001,9.7610412,0.027335400000000003,0.0942842,-0.5137225999999999,2.158991,-0.010669,0.39744,,,,,,,,0,0,1,0,0,0
131.0,0.4625922000000001,-2.385405,12.3653296,-0.02187575,0.18313975,-0.5129207499999999,2.158991,-0.010669,0.39744,52.35243,4.921606,6.587783,1.92,327.100006,3.790092,2.5,0,0,0,1,0,0
131.5,-2.2639092,-2.5862822000000003,10.932268400000002,0.0390332,0.08585479999999998,-0.6278898000000002,1.4041355999999998,0.04413900000000002,0.018698399999999997,,,,,,,,0,0,0,1,0,0
132.0,-0.8020143999999998,-1.3643278,12.088241,0.13716579999999998,0.1240328,-0.5106073999999999,1.5958742000000004,0.06938680000000005,0.2401094,52.352448,4.921597,5.916965,2.06,341.0,3.790092,2.5,0,0,0,1,0,0
132.5,-2.165026,2.6131417999999997,6.6428348,0.10940280000000001,0.06725419999999999,-0.5245348000000001,2.1876012,-0.6164463999999998,0.20654819999999985,,,,,,,,0,0,0,1,0,0
133.0,-0.9508477999999998,0.8191827999999999,9.4858666,0.13144675,0.06093175000000003,,2.567553,-0.803005,-0.342559,52.352472,4.921601,5.823557,3.14,6.6,3.790092,2.5,0,0,0,1,0,0
133.5,-1.6973488,-0.9190232,7.875258,0.08218959999999997,-0.2333438,-0.25047759999999997,2.4422892000000003,-1.099899,0.6106835999999999,,,,,,,,0,0,0,1,0,0
134.0,-1.3033704000000002,0.2528018000000001,16.235301800000002,0.1192986,-0.1869192,0.3495574,-0.08090679999999999,-0.061382200000000164,-0.6653727999999999,52.352497,4.92163,5.353028,3.47,38.0,3.790092,2.5,0,0,0,1,0,0
134.5,-3.3534212000000005,-4.5147776,16.326348799999998,-0.0162178,-0.03701740000000001,-0.177054,0.4422806,-0.5476951999999999,1.080717,,,,,,,,0,0,0,1,0,0
135.0,-1.9014566,-0.6269794,10.682398,0.017775599999999996,-0.027182999999999995,0.2781186,-0.501101,-1.343807,1.6161819999999998,52.352517,4.9216739999999985,5.063836,3.35,52.400002,3.790092,2.5,1,0,0,0,0,0
135.5,-0.9663415999999999,-1.9454846000000003,12.032368599999998,-0.02645725,0.1344625,-0.2406355,-0.501101,-1.343807,1.6161819999999998,,,,,,,,1,0,0,0,0,0
136.0,0.5108676,5.2615181999999985,4.5335616000000005,0.086893,-0.005009,0.11093,0.3232068000000001,0.11914140000000005,-0.2127705999999998,52.35253400000001,4.921724,5.0864720000000005,3.71,57.900002,3.790092,2.5,1,0,0,0,0,0
136.5,0.20440679999999994,1.616172,8.409874400000001,-0.10207260000000001,0.03640659999999999,-0.145565,-0.3627212000000001,-0.9227708,0.3771962,,,,,,,,1,0,0,0,0,0
137.0,-0.5678168000000001,-6.1742002000000005,16.824295199999998,0.0774248,-0.0812732,0.0826782,0.6924079999999999,2.8420843999999996,,52.352553,4.921776,5.022687,4.06,54.0,3.790092,2.5,1,0,0,0,0,0
137.5,1.4411372,-1.2142377999999998,11.6621388,0.011682500000000002,0.0979265,-0.134081,0.51598,3.168232,,,,,,,,,1,0,0,0,0,0
138.0,0.19399799999999995,-0.9794421999999998,10.8707728,-0.038116799999999985,-0.14131960000000002,0.07177439999999999,0.07403340000000003,1.9129346000000005,-3.8739144,52.352575,4.921827,4.708233,3.94,53.5,3.790092,2.5,1,0,0,0,0,0
138.5,0.8376078000000001,-0.7322038000000001,9.452427,0.07736380000000001,0.0587024,0.09804100000000003,-0.21113380000000004,-0.10496120000000006,0.06268880000000003,,,,,,,,1,0,0,0,0,0
139.0,-1.6390838,-0.6614360000000001,10.0873028,-0.0399492,0.054701200000000005,-0.10240839999999998,-0.5512514000000001,-0.06835639999999997,-0.1595724,52.352597,4.921878,4.675091,4.08,53.900002,3.790092,2.5,1,0,0,0,0,0
139.5,0.5201998,-0.8439484,9.9683198,0.012560749999999996,-0.08525150000000001,0.07818825,-1.052994,0.219442,-0.499159,,,,,,,,1,0,0,0,0,0
140.0,0.07100719999999998,0.045224399999999935,9.1669632,0.034573800000000016,0.0506086,-0.0727826,-1.052994,0.219442,-0.499159,52.35262,4.9219300000000015,4.957135,4.16,55.0,3.790092,2.5,1,0,0,0,0,0
140.5,-0.06640080000000001,-0.3804588,10.314621,-0.006414199999999999,-0.047799,0.0512806,-0.4350758000000001,-0.466224,0.1190362,,,,,,,,1,0,0,0,0,0
141.0,0.13794640000000008,0.15852460000000015,9.219964599999999,-0.0320998,0.045935800000000006,0.016126400000000003,-0.6675869999999999,-0.2552748,-0.567629,52.352644,4.921981,5.074386,4.03,53.099998,3.790092,2.5,1,0,0,0,0,0
141.5,-1.0485948,0.21613139999999986,9.5842114,0.02715200000000001,-0.0820062,0.099232,-1.091119,-0.452137,-0.797895,,,,,,,,1,0,0,0,0,0
142.0,-0.25010999999999994,0.5126025999999999,6.3183678,0.01672175,0.1421365,-0.04023949999999999,-1.091119,-0.452137,-0.797895,52.352666,4.922031,4.830123,4.04,54.099998,3.790092,2.5,1,0,0,0,0,0
142.5,0.34624119999999986,-0.3214157999999999,12.547423199999999,0.003023799999999999,-0.082342,-0.050089599999999984,-0.6220049999999999,-0.31089459999999997,-0.009530200000000022,,,,,,,,1,0,0,0,0,0
143.0,0.2701494000000001,2.5237702,8.574022,-0.010109600000000002,0.035429199999999994,0.0434924,0.07435479999999997,-0.33236599999999994,-0.12399099999999982,52.35269,4.922082,4.964524,4.17,51.900002,3.790092,2.5,1,0,0,0,0,0
143.5,0.113719,-0.2602194,10.5317698,-0.006414199999999992,-0.0151184,0.01780639999999999,-0.707544,-1.599464,0.199634,,,,,,,,1,0,0,0,0,0
144.0,1.6120448,1.7050656000000002,8.967462,0.046730000000000015,-0.012064,-0.0530675,-0.707544,-1.599464,0.199634,52.352713,4.92213,4.705368,3.82,52.299999,3.790092,2.5,1,0,0,0,0,0
144.5,0.4996214,-1.2321838,12.7553598,-0.062856,-0.08625139999999999,0.22121839999999998,-0.8470808000000001,-1.2375356000000002,0.07065659999999999,,,,,,,,1,0,0,0,0,0
145.0,-1.369951,0.7889735999999999,8.438109599999999,0.07632520000000001,0.15680460000000002,-0.16633379999999998,0.6023251999999999,0.1158212,-0.1876068,52.352735,4.922174,4.62669,3.69,50.0,3.790092,2.5,1,0,0,0,0,0
145.5,-2.1089144,1.0829916000000002,9.093743,0.0022907999999999987,-0.10020959999999997,0.045294199999999986,-0.3886602000000001,-0.5935159999999999,0.12461259999999995,,,,,,,,1,0,0,0,0,0
146.0,3.1785658000000003,-0.8166706000000005,13.3914916,0.1682885,-0.08826724999999999,0.1440075,-0.639789,-0.8578459999999999,-0.9161629999999998,52.352757,4.922217,4.213843,3.48,51.0,3.790092,2.5,1,0,0,0,0,0
146.5,1.0219146,2.8395626000000007,4.085744399999999,-0.10054539999999998,-0.0982852,0.1515206,-0.639789,-0.8578459999999999,-0.9161629999999998,,,,,,,,1,0,0,0,0,0
147.0,-1.3191032,-2.5847868000000003,10.7268444,0.027366,-0.1174966,0.5753568,-1.4327159999999999,-0.5272585999999999,0.6029251999999999,52.352777,4.922254,4.026758999999998,2.91,49.0,3.790092,2.5,0,0,0,0,1,0
147.5,1.0444071999999998,-2.1733412000000003,10.8733446,0.1038136,0.0120336,0.37557959999999996,-1.526398,0.043755600000000006,0.4041724,,,,,,,,0,0,0,0,1,0
148.0,0.6528217999999999,1.9291532,8.465925799999999,0.07000300000000001,0.03885000000000001,0.3770456,-0.7464069999999999,0.955121,-0.371816,52.3528,4.9222839999999985,3.285658,3.21,38.599998,3.790092,2.5,0,0,0,0,1,0
148.5,1.5139988000000002,-1.5808186000000002,11.7579116,0.04233925,0.09765925,0.19253125,-0.7464069999999999,0.955121,-0.371816,,,,,,,,0,0,0,0,1,0
149.0,1.2147166,0.15978060000000002,11.1557582,0.0236704,-0.08793139999999999,0.18038320000000002,-0.7600084,0.6024432,-0.3957426,52.35283,4.9223,4.263065,3.46,15.6,3.790092,2.5,0,0,0,0,1,0
149.5,-2.2846071999999995,-2.5076186,8.567322,0.08670960000000001,0.08167039999999999,0.5132646,-0.926527,-0.8000727999999999,-0.17460760000000006,,,,,,,,0,0,0,0,1,0
150.0,0.15972099999999986,4.2045482000000005,6.105466399999999,-0.1662116,0.16725020000000002,-0.0060778000000000065,0.9155285999999998,-0.592871,0.3791244000000001,52.352865,4.922295,4.268545,4.0,353.100006,3.790092,2.5,0,0,0,0,1,0
150.5,-1.8404994,-0.7618747999999999,8.376912599999999,,0.05455650000000001,0.032603999999999994,1.548839,-0.553357,1.279362,,,,,,,,0,0,0,0,1,0
151.0,0.5784648,-0.7353144,8.9945608,0.0054976000000000035,0.078555,-0.055526000000000006,1.4973168,-0.3247074,1.2140376,52.3529,4.922274,4.606839,3.65,338.799988,3.790092,2.5,1,0,0,0,0,0
151.5,-1.3064212000000002,0.04103700000000001,9.342835800000001,-0.01603459999999999,0.0235178,-0.13069080000000002,0.2839494,-0.3647984,-0.1870942,,,,,,,,1,0,0,0,0,0
152.0,-1.1902497999999997,-2.412084599999999,13.631851,-0.010781200000000005,-0.184079,0.0795932,0.22518779999999997,-0.7349576000000001,1.2895754,52.352931,4.922246,4.357782,3.67,334.100006,3.790092,2.5,1,0,0,0,0,0
152.5,0.3515058000000001,1.1673982000000005,8.7337426,0.015057199999999996,0.1133732,0.0942538,0.129347,-1.015769,2.447816,,,,,,,,1,0,0,0,0,0
153.0,-0.16564300000000012,-0.6454635999999999,10.8665852,0.0018327500000000013,-0.015767499999999997,-0.113656,0.129347,-1.015769,2.447816,52.352962,4.9222150000000005,4.270589,3.9,332.399994,3.790092,2.5,1,0,0,0,0,0
153.5,-0.6026924000000001,-0.8491528000000004,11.286884600000002,-0.0110564,-0.107051,0.25334899999999994,-0.4353542,-0.4850854,0.07257340000000002,,,,,,,,1,0,0,0,0,0
154.0,2.3047666,-1.6258034000000006,8.4390666,-0.0332606,0.11132699999999998,-0.09819359999999998,0.5039326,-1.0268062,0.5769770000000001,52.352993,4.922181,3.836715,3.88,330.399994,3.790092,2.5,1,0,0,0,0,0
154.5,0.8721837999999998,3.8400616000000003,12.175998199999999,0.15762899999999996,-0.004092999999999999,-0.0688426,0.17095219999999994,0.2041966,-0.1578850000000002,,,,,,,,1,0,0,0,0,0
155.0,-0.7576871999999999,-0.5373681999999997,6.4884374000000005,,-0.044439000000000006,0.11357950000000001,0.249847,1.506066,-1.495408,52.353022,4.922149,4.048469,3.64,331.700012,3.790092,2.5,1,0,0,0,0,0
155.5,0.13758739999999994,-5.372784200000001,,0.15784279999999998,0.0683232,-0.045630199999999996,0.13787020000000003,-0.051213000000000085,0.379374,,,,,,,,1,0,0,0,0,0
156.0,-0.9056234000000002,0.3111865999999999,7.765367800000003,-0.052074599999999985,-0.0743096,-0.0127056,-0.22363379999999997,0.7060001999999999,-1.2083588,52.353051,4.922119,3.805023,3.65,331.899994,3.790092,2.5,1,0,0,0,0,0
156.5,1.0546962,-1.8839292,12.5987496,0.015637799999999997,-0.0367118,0.162974,0.4801572,0.007471600000000067,-0.07909599999999994,,,,,,,,1,0,0,0,0,0
157.0,0.4443472,-1.6389039999999997,13.417454,0.02057775,0.17489325,-0.14190775,1.165073,0.481918,-0.458058,52.353079,4.922089,3.969841,3.66,333.100006,3.790092,2.5,1,0,0,0,0,0
157.5,0.4083352000000001,0.8554938,9.0168734,-0.012797399999999995,-0.051036000000000005,-0.11053300000000002,1.165073,0.481918,-0.458058,,,,,,,,1,0,0,0,0,0
158.0,-0.8455636000000001,-1.3912468,11.165448800000002,0.014812999999999996,-0.010872799999999998,0.1557966,-0.2213864,-0.17152160000000002,-0.07514979999999997,52.353108,4.922059,3.873185,3.75,331.899994,3.790092,2.5,1,0,0,0,0,0
158.5,-1.9843078000000005,1.0602598,7.501199799999999,-0.0550678,-0.02122700000000001,-0.05460980000000001,0.06640839999999999,-0.33831939999999994,0.30035940000000005,,,,,,,,1,0,0,0,0,0
159.0,0.8238488000000002,0.1316052000000001,10.7639334,0.050242199999999994,-0.0607794,0.21963000000000002,0.8480399999999999,0.129867,-0.27026100000000003,52.353137,4.922029,3.904458,3.73,331.399994,3.790092,2.5,1,0,0,0,0,0
159.5,0.8575877999999998,0.7922636,8.597591,-0.02439575,0.15893475,-0.10632575,0.8480399999999999,0.129867,-0.27026100000000003,,,,,,,,1,0,0,0,0,0
160.0,-0.10289159999999987,-3.8136807999999998,13.8618604,0.062367399999999996,-0.0488984,-0.08603779999999997,0.2354646,-0.010978200000000007,-0.1872852,52.353165,4.922,3.954287,3.77,331.600006,3.790092,2.5,1,0,0,0,0,0
160.5,2.2233509999999996,2.5573892000000003,9.4206022,-0.0334438,0.042698200000000006,-0.003481800000000001,0.5239178000000001,-0.17979700000000004,-0.2941594,,,,,,,,1,0,0,0,0,0
161.0,-0.6563514,1.6107884,9.1770734,0.024953,-0.013713599999999998,-0.0939788,0.332572,1.165346,-0.573922,52.353194,4.921971,4.139918,3.67,330.700012,3.790092,2.5,1,0,0,0,0,0
161.5,0.9190235999999999,-0.19399800000000006,10.336575199999999,0.008819,-0.03840725,0.07295800000000001,0.332572,1.165346,-0.573922,,,,,,,,1,0,0,0,0,0
162.0,-1.6693526,1.2042480000000002,8.013742400000002,-0.0235786,0.0300536,-0.027182599999999998,0.21134760000000002,1.0712118,-0.7605689999999999,52.35322100000001,4.921941,4.165451999999998,3.58,329.299988,3.790092,2.5,1,0,0,0,0,0
162.5,0.1393219999999999,-1.1699706000000003,10.8991874,0.010353800000000002,0.018172999999999998,-0.1211002,0.771787,-0.1859976,0.2046210000000001,,,,,,,,1,0,0,0,0,0
163.0,-0.7210772,2.6794232000000004,5.831608,-0.027793599999999998,-0.0580304,0.075348,-0.438288,-0.1661186,-0.2712524000000001,52.353249,4.921913,4.083811,3.84,332.600006,3.790092,2.5,1,0,0,0,0,0
163.5,0.5239086000000001,-1.1876776000000002,12.413784399999999,0.025594400000000003,-0.0583972,0.007971399999999998,-1.440669,-0.184604,-1.038261,,,,,,,,1,0,0,0,0,0
164.0,-0.09421739999999997,-0.05359919999999958,8.961240400000001,-0.033443999999999995,-0.017447499999999998,0.2818295,-1.440669,-0.184604,-1.038261,52.353278,4.921886,4.244969,3.77,332.899994,3.790092,2.5,1,0,0,0,0,0
164.5,0.7055235999999997,1.7148164,10.7194268,0.0517082,0.14397659999999995,-0.1859114,0.116048,0.524316,-0.7201554000000001,,,,,,,,1,0,0,0,0,0
165.0,1.3617553999999998,3.2998220000000003,7.4801426000000015,-0.05012,-0.06074880000000001,-0.0434314,0.5217280000000001,-0.7680014000000001,0.5255018,52.353308,4.92186,4.067324,3.92,335.399994,3.790092,2.5,1,0,0,0,0,0
165.5,-0.8539985999999999,-1.7899505999999998,13.6433364,-0.0034820000000000016,0.028801600000000007,0.008368399999999991,1.370585,-2.699528,2.256213,,,,,,,,1,0,0,0,0,0
166.0,2.5575086,-5.9273805999999984,13.112009999999998,0.20379400000000006,-0.004886750000000003,-0.06631524999999999,1.370585,-2.699528,2.256213,52.353339,4.921834,4.120757,3.82,333.700012,3.790092,2.5,1,0,0,0,0,0
166.5,-0.4036692,0.2010568000000001,9.0966742,,-0.0419652,0.0487152,0.8842561999999999,-1.4652611999999998,0.8825712000000001,,,,,,,,1,0,0,0,0,0
167.0,-0.8734999999999999,-2.452045,13.419787200000002,0.1343866,-0.035520600000000006,-0.0170732,0.03627059999999999,0.14637460000000002,0.0947298,52.353367,4.921809,4.145564,3.64,333.899994,3.790092,2.5,1,0,0,0,0,0
167.5,0.021954199999999792,0.4111468,7.306005399999999,-0.0384224,0.021532000000000003,0.18007779999999998,-1.6585497999999999,-0.8022534,-0.19221520000000006,,,,,,,,1,0,0,0,0,0
168.0,0.0573080000000001,-0.0705283999999999,9.5423972,0.03737625,0.15504075,-0.2955355,-1.62056,-1.043519,-0.3012,52.353396,4.9217830000000005,4.117636,3.72,332.600006,3.790092,2.5,1,0,0,0,0,0
168.5,0.15427700000000014,-1.8019150000000004,12.453206599999998,0.0462716,-0.1003928,0.06740700000000001,-1.62056,-1.043519,-0.3012,,,,,,,,1,0,0,0,0,0
169.0,0.1231706,2.4937400000000003,6.6239914,-0.0673154,-0.0062918000000000045,0.07806640000000001,0.3122092,0.36315159999999996,-0.2695872,52.353424,4.921755,4.304854,3.62,331.399994,3.790092,2.5,1,0,0,0,0,0
169.5,-0.1828714,-1.974557,13.994961600000002,,0.13994520000000002,-0.179009,0.5901102,0.4180590000000001,0.3092518000000001,,,,,,,,1,0,0,0,0,0
170.0,-0.16731819999999994,-1.6876578000000002,9.9881204,,0.0458746,-0.11603039999999999,0.9732870000000002,1.358737,0.8722200000000001,52.353451,4.921727,4.639777,3.52,330.700012,3.790092,2.5,0,0,0,1,0,0
170.5,-0.4738388000000001,,3.0305696,0.18535375,0.23147275,-0.53972175,0.9732870000000002,1.358737,0.8722200000000001,,,,,,,,0,0,0,1,0,0
171.0,1.1918650000000002,-0.9298507999999996,11.820843199999999,0.0905276,0.02553360000000001,,2.0029072,-0.0918689999999999,0.6086058000000001,52.353482,4.921708,4.676735,3.73,340.5,3.790092,2.5,0,0,0,1,0,0
171.5,-0.9601798,-2.3111676,10.877173799999998,0.047646400000000005,-0.0926352,-0.0758366,0.7174338,0.14692099999999994,-0.10140780000000003,,,,,,,,0,0,0,1,0,0
172.0,0.4357928000000001,1.7822342000000009,9.4016996,0.09950679999999999,0.11877919999999995,-0.5781059999999999,2.399511,-1.2205549999999998,2.2829,52.353513,4.921705,4.653523000000002,3.31,358.899994,3.790092,2.5,0,0,0,1,0,0
172.5,-1.6963317999999998,0.4661219999999997,9.5078208,0.08246424999999999,-0.06761325,-0.57778475,2.399511,-1.2205549999999998,2.2829,,,,,,,,0,0,0,1,0,0
173.0,-0.03948160000000014,0.4353744000000005,9.6591674,-0.053143800000000005,-0.14587019999999998,-0.271888,1.4923491999999998,-0.7259575999999999,1.1191032000000003,52.353543,4.921727,4.519362,3.71,26.4,3.790092,2.5,0,0,0,1,0,0
173.5,-0.7122836000000001,0.7258030000000001,10.7455686,0.1931498,-0.104058,-0.1363412,-0.03923639999999997,0.2894606,0.3127088000000001,,,,,,,,0,0,0,1,0,0
174.0,-1.0644472,-1.1133803999999998,11.173345199999998,-0.014415999999999997,-0.12995779999999998,0.017500599999999998,0.4985238000000001,0.1614408000000001,-1.9749050000000004,52.353567,4.92177,3.908643,3.56,50.0,3.790092,2.5,0,0,0,1,0,0
174.5,-0.23575300000000016,-1.4866006,11.8126478,-0.02401425,0.054862,-0.04512625,0.7477060000000001,1.150068,-3.1958990000000003,,,,,,,,0,0,0,1,0,0
175.0,-1.3238889999999999,1.5136397999999998,6.851249399999999,0.029718000000000005,-0.051860800000000006,-0.1199702,0.7477060000000001,1.150068,-3.1958990000000003,52.35358400000001,4.921824,4.185004,3.71,61.599998,3.790092,2.5,1,0,0,0,0,0
175.5,1.5980466,-1.1589638,10.6480008,-0.0098958,-0.0441338,0.14971839999999995,-0.3987976,-0.9649036,1.003192,,,,,,,,1,0,0,0,0,0
176.0,0.7338188000000001,-4.2463034,14.912848599999998,0.06829260000000001,0.025685999999999997,0.00250439999999999,-0.9842324,0.15173159999999994,-1.0327495999999998,52.353598,4.921881,3.958005,3.58,66.099998,3.790092,2.5,1,0,0,0,0,0
176.5,0.4591828,3.0810584000000003,5.2600821999999985,-0.061390199999999985,-0.0322832,0.0043674,-1.566681,0.995765,-0.207935,,,,,,,,1,0,0,0,0,0
177.0,0.8603394,1.1779866000000003,8.512945199999999,-0.004428499999999988,0.08250225,0.07116375,-1.566681,0.995765,-0.207935,52.353612,4.921935,3.997607,3.64,63.400002,3.790092,2.5,1,0,0,0,0,0
177.5,-0.7868798,1.7366510000000002,5.967400400000002,-0.0007024000000000058,0.03252759999999999,-0.1878664,-0.4173798,0.23593100000000006,-0.2277794,,,,,,,,1,0,0,0,0,0
178.0,0.5346164000000001,-1.3419545999999998,11.735359400000002,0.030511800000000006,0.007208200000000003,0.030908800000000007,-0.7648953999999999,-0.32480659999999995,-0.07823260000000001,52.353627,4.921989,3.842752,3.66,63.0,3.790092,2.5,1,0,0,0,0,0
178.5,-0.01196400000000004,2.9114072,4.516213400000001,-0.033749400000000006,-0.12323859999999999,0.05928259999999999,0.8350620000000001,-1.856347,2.565053,,,,,,,,1,0,0,0,0,0
179.0,-0.14057839999999994,0.9047862000000002,10.5177114,0.11422850000000001,0.05482375,0.00969725,0.8350620000000001,-1.856347,2.565053,52.353642,4.922041,4.066315,3.58,63.0,3.790092,2.5,1,0,0,0,0,0
179.5,-1.6560723999999998,-0.9733404,7.4298936,-0.007391399999999992,0.1040272,-0.014049599999999995,0.6131384000000001,-2.0021824,2.6157954,,,,,,,,1,0,0,0,0,0
180.0,-1.9867608,0.7653443999999999,7.754300400000001,-0.0006720000000000004,-0.1100744,-0.114809,-0.3885224,-0.2696812000000001,-0.6263340000000002,52.353657,4.922093,4.226889,3.63,63.700001,3.790092,2.5,1,0,0,0,0,0
180.5,0.3242276000000001,0.02931200000000018,10.492767,0.0153324,-0.09736900000000001,0.2572888,-0.6626074000000001,-0.6176119999999999,1.302394,,,,,,,,1,0,0,0,0,0
181.0,1.6824536,-4.747838400000001,17.494464800000003,-0.09452859999999996,0.1230856,-0.1087614,-1.562238,-1.245541,3.265499,52.353674,4.922147,4.683486,3.95,63.5,3.790092,2.5,1,0,0,0,0,0
181.5,-1.6640883999999998,1.39693,10.006306,0.0659335,-0.006986499999999999,0.0087425,-1.562238,-1.245541,3.265499,,,,,,,,1,0,0,0,0,0
182.0,-0.44213379999999997,0.09864420000000004,11.0809822,-0.007666200000000003,0.033566200000000004,-0.025105799999999998,-0.18632820000000003,-0.3920964000000001,0.4929334,52.353691,4.9222,4.3240440000000016,3.8,61.599998,3.790092,2.5,1,0,0,0,0,0
182.5,-0.1997408,-2.1004193999999994,10.233863200000002,0.061817600000000014,0.027152199999999998,0.026083199999999997,-0.44467799999999996,-0.5584762,0.317171,,,,,,,,1,0,0,0,0,0
183.0,0.4809574,-0.7875977999999997,6.8854668000000006,-0.10424100000000004,0.04868459999999998,-0.2654438,0.8854179999999999,-0.008833,-0.373336,52.353709,4.922253,4.607486,3.89,61.0,3.790092,2.5,1,0,0,0,0,0
183.5,-0.00873399999999991,0.1594219999999999,10.813704,0.04249224999999998,-0.10388199999999999,0.11483924999999998,0.8854179999999999,-0.008833,-0.373336,,,,,,,,1,0,0,0,0,0
184.0,1.1691332,-0.4834102000000001,9.6709516,0.0889698,-0.0741264,0.06496379999999999,0.2167558,-0.6002814000000001,0.15006940000000005,52.353726,4.922306,4.520137999999998,3.82,63.400002,3.790092,2.5,1,0,0,0,0,0
184.5,0.6707680000000001,0.17916279999999976,10.905708,-0.0530216,0.012644399999999995,-0.010842600000000013,0.2956824,0.0685066,-0.3349358000000001,,,,,,,,1,0,0,0,0,0
185.0,0.07549360000000005,3.2614171999999995,5.0349776,0.057297399999999984,-0.053693399999999995,0.1113882,-0.303244,-0.07948679999999994,-0.06688980000000015,52.353742,4.92236,4.114369,3.81,65.199997,3.790092,2.5,1,0,0,0,0,0
185.5,0.8300103999999999,-2.2112072,13.7890592,-0.05986300000000003,0.07280525,0.19188225000000006,1.526957,-0.29619,0.006059,,,,,,,,1,0,0,0,0,0
186.0,-2.1900308,-1.1973683999999998,8.0112898,0.027091,0.06795659999999999,-0.16178299999999998,1.526957,-0.29619,0.006059,52.353759,4.922413,4.544783,3.85,63.799999,3.790092,2.5,1,0,0,0,0,0
186.5,1.9159928,0.6837487999999997,11.0015408,0.008307599999999988,-0.0649942,0.1592478,-0.6190944,-0.06676899999999994,-0.13050819999999996,,,,,,,,1,0,0,0,0,0
187.0,0.12915300000000016,2.4314668,6.4792847999999985,-0.016401200000000008,0.10127840000000002,-0.1726864,1.3016912,-0.16750359999999992,0.21539320000000003,52.353776,4.922461,4.514683,3.4,62.5,3.790092,2.5,1,0,0,0,0,0
187.5,-0.04797599999999993,0.4824527999999997,7.2022768,-0.0830142,-0.028587599999999987,-0.0500898,1.57507,0.58262,-0.304885,,,,,,,,1,0,0,0,0,0
188.0,-0.19082760000000001,1.0914855999999995,6.244549400000001,,-0.02218125,-0.005268749999999999,1.57507,0.58262,-0.304885,52.353795,4.922511,4.388946,4.13,60.0,3.790092,2.5,1,0,0,0,0,0
188.5,0.5948555999999999,1.920658,4.449992399999998,-0.13585239999999998,-0.096178,0.0766918,0.10955220000000004,-0.714449,-1.0624993999999996,,,,,,,,1,0,0,0,0,0
189.0,-1.863291,-2.3892932,13.209697000000002,-0.08588499999999999,0.0241896,-0.1911342,0.5059973999999999,-0.017832600000000018,-0.8694317999999999,52.353816,4.9225629999999985,4.577116,3.85,62.400002,3.790092,2.5,1,0,0,0,0,0
189.5,2.4531218,,10.9971734,0.014019000000000049,-0.0999958,0.24281180000000005,-2.519592,0.257686,-0.457912,,,,,,,,1,0,0,0,0,0
190.0,-1.7794225999999995,1.5212966,4.767280599999999,0.06761325,-0.319664,0.34352525,-2.519592,0.257686,-0.457912,52.353834,4.922611,4.869466,3.41,60.700001,3.790092,2.5,0,0,0,0,1,0
190.5,0.12825499999999984,1.2451650000000003,5.7991254,0.10439379999999998,0.02360919999999999,0.45159940000000004,-2.2186692000000003,0.53508,-0.7448111999999999,,,,,,,,0,0,0,0,1,0
191.0,2.3540588,-0.8470592000000001,10.2519888,0.08396099999999998,-0.053845999999999984,0.4116502,-1.4904191999999998,-0.1294828,0.3744626,52.353855,4.922651,4.392529,3.57,53.599998,3.790092,2.5,0,0,0,0,1,0
191.5,0.20327040000000007,0.11509480000000015,7.232725200000001,0.05971,0.14287699999999998,0.3491296,-0.37235820000000003,-0.5985246,0.9555836,,,,,,,,0,0,0,0,1,0
192.0,3.095834,-1.4417954,10.7165554,-0.0273735,0.15901099999999999,-0.34245625,0.6296039999999999,-0.848733,1.514408,52.35387100000001,4.9226730000000005,3.508532,1.12,46.5,3.790092,2.5,0,0,0,0,1,0
192.5,1.1720642,3.1360334,5.6663239999999995,0.09782719999999999,-0.308661,0.5305208,0.6296039999999999,-0.848733,1.514408,,,,,,,,0,0,0,0,1,0
193.0,-0.8815158000000001,-6.4218574,15.206687,-0.04224,0.0239148,0.3482134,-1.2212818,-0.19420420000000008,0.17338879999999984,52.3539,4.922686,4.921606,4.7,20.200001,3.790092,2.5,0,0,0,0,1,0
193.5,1.6036100000000002,2.5098317999999997,1.4007581999999996,-0.1259874,0.06545219999999999,0.1132204,-0.6081597999999999,0.716921,-2.2052464,,,,,,,,0,0,0,0,1,0
194.0,1.542533,-1.2092728000000001,11.4876426,0.22998420000000006,-0.1246434,0.5045293999999999,-0.603827,1.990581,-2.936587,52.353941,4.922694,4.2594970000000005,3.8,6.9,3.790092,2.5,0,0,0,0,1,0
194.5,2.9001606,-1.0571490000000003,6.6684378,0.10632575,0.19917425,0.009735500000000005,-0.603827,1.990581,-2.936587,,,,,,,,0,0,0,0,1,0
195.0,0.3275175999999999,-1.6656437999999998,9.818887599999998,-0.011392199999999998,0.09083300000000001,0.11352600000000003,-0.2953961999999999,0.7705408,-1.1822768,52.35397800000001,4.922682,3.970908,4.19,353.799988,3.790092,2.5,1,0,0,0,0,0
195.5,-0.4850849999999999,-2.5297517999999997,13.34543,0.014812999999999991,0.13554720000000003,-0.0950786,0.0657324,-0.5453698,0.07182099999999995,,,,,,,,1,0,0,0,0,0
196.0,-0.6056829999999997,2.6195428,6.9854867999999986,0.0363148,-0.11627460000000005,0.2123304,-0.9340866,-0.25572,-0.20771839999999997,52.354014,4.922656,4.053647,4.14,339.399994,3.790092,2.5,1,0,0,0,0,0
196.5,-1.9599612000000002,,,0.04337,0.0243955,-0.031267750000000004,-1.4074799999999998,-0.614282,-0.221394,,,,,,,,1,0,0,0,0,0
197.0,-0.6357131999999999,1.8844678000000008,1.824707,-0.0076050000000000015,0.041018599999999995,0.012766599999999994,-1.0627909999999998,-0.062098600000000025,-0.16770800000000002,52.354046,4.922619999999998,3.73403,4.13,329.200012,3.790092,2.5,1,0,0,0,0,0
197.5,1.5410978000000002,-2.4757936000000003,12.4177922,-0.009162800000000016,-0.030939199999999993,0.002748800000000007,0.24251860000000003,-1.0863896,0.4024008,,,,,,,,1,0,0,0,0,0
198.0,1.3076776,-0.6000002,10.242536999999999,-0.02217380000000001,0.049661800000000006,0.009681799999999996,0.12550319999999998,-0.18653699999999998,-1.4235944000000005,52.354075,4.922581,3.5555830000000004,3.97,329.0,3.790092,2.5,1,0,0,0,0,0
198.5,1.4295916000000002,-0.9379864,11.3642922,-0.01884460000000001,0.0137746,-0.017744999999999997,0.816908,-0.15328599999999998,-1.852171,,,,,,,,1,0,0,0,0,0
199.0,0.7046264000000001,2.3066212000000004,6.164629,0.07219450000000001,0.01767625,-0.0040467500000000095,0.816908,-0.15328599999999998,-1.852171,52.354103,4.922545,3.645567,3.76,329.0,3.790092,2.5,1,0,0,0,0,0
199.5,-0.15631099999999995,0.6936791999999997,10.515618199999999,-0.04052980000000001,-0.0419348,-0.020952200000000004,0.1022,-0.6186757999999999,-0.24312019999999995,,,,,,,,1,0,0,0,0,0
200.0,0.502373,-0.070289,9.1450694,-0.0005498000000000032,0.1033554,-0.0879926,0.3344172,0.03367679999999997,-0.5480250000000001,52.354131,4.922511,3.230609,3.78,329.799988,3.790092,2.5,1,0,0,0,0,0
200.5,0.8885746000000001,-0.6954138000000003,9.838808,-0.0436144,0.05045599999999999,-0.2702084,0.09245160000000001,0.2895788,-1.2000948,,,,,,,,1,0,0,0,0,0
201.0,-0.7400401999999999,-2.6575884,14.1910538,0.07624124999999997,-0.1397315,0.032565750000000004,0.064899,0.182161,-0.8753540000000001,52.354159,4.922479,3.4112339999999994,3.8,332.100006,3.790092,2.5,1,0,0,0,0,0
201.5,2.0413768,0.4558328,6.855616599999999,-0.0105982,-0.0149352,-0.0911384,0.15722560000000002,0.4729010000000001,-1.0512008000000002,,,,,,,,1,0,0,0,0,0
202.0,0.6483954000000001,-0.08608159999999962,10.775957,-0.003206999999999993,-0.11251799999999998,0.05519,-0.4637134,-0.8215957999999999,0.08193299999999996,52.354186,4.922447,3.465269,3.45,330.600006,3.790092,2.5,1,0,0,0,0,0
202.5,-0.5306084,-2.1828526000000004,12.6443326,0.0496008,-0.16752479999999997,0.3822988,-0.31438239999999995,-1.5576060000000005,1.5161434000000005,,,,,,,,1,0,0,0,0,0
203.0,0.618186,5.274379400000001,2.2491334000000003,0.11262499999999998,0.1564915,-0.017638249999999994,-0.583838,-1.58802,1.714659,52.354212,4.922417,3.81972,3.39,332.700012,3.790092,2.5,1,0,0,0,0,0
203.5,-0.5967102000000001,1.8771094000000008,2.8306492000000008,-0.009773599999999985,-0.1148392,0.34418200000000004,-0.583838,-1.58802,1.714659,,,,,,,,1,0,0,0,0,0
204.0,0.9568898,0.5398207999999999,9.1000244,0.05140279999999999,-0.0707054,0.36495079999999996,-1.1130128,-0.7605398000000001,-0.6648972000000001,52.35423400000001,4.922388,4.208163,2.88,326.399994,3.790092,2.5,1,0,0,0,0,0
204.5,-0.5369496,-0.2605784000000005,10.455857,0.05723640000000001,-0.0627036,0.4558448000000001,-0.5358008000000001,0.7378439999999999,-0.7580408000000001,,,,,,,,1,0,0,0,0,0
205.0,0.04600200000000003,0.7418948000000001,8.292745799999999,0.06890339999999999,0.040254799999999986,0.4033732,-1.870837,0.449824,-0.085511,52.354251,4.922358,3.7678,2.53,318.700012,3.790092,2.5,0,0,0,0,1,0
205.5,0.9501304,1.3804794,7.480562000000001,0.041118,0.10216425,0.22399,-1.870837,0.449824,-0.085511,,,,,,,,0,0,0,0,1,0
206.0,1.057508,-1.1064413999999998,11.031331,0.0647804,-0.07046099999999997,0.34335720000000003,-0.9515642,0.5703866,-0.5099986000000001,52.354261,4.92232,3.892548,2.78,295.899994,3.790092,2.5,0,0,0,0,1,0
206.5,0.9421142,-0.12969100000000006,10.747422600000002,0.0288014,0.07748600000000001,0.2992236,-0.32707480000000005,0.3563406,-0.20923479999999994,,,,,,,,0,0,0,0,1,0
207.0,-0.2130212,1.0125228000000002,8.658069600000001,-0.017500800000000004,0.025289,0.20829920000000002,-1.4671299999999998,0.026302,1.572114,52.354262,4.922274,3.964728,3.22,272.899994,3.790092,2.5,0,0,0,0,1,0
207.5,-0.4928018,0.6515657999999999,8.205646799999998,0.078112,-0.005421249999999997,0.10029325,-1.4671299999999998,0.026302,1.572114,,,,,,,,0,0,0,0,1,0
208.0,-1.1728421999999998,0.6723234,8.115138400000001,0.010934000000000008,0.11706880000000001,0.06569680000000001,-1.0125638000000001,0.1274618,1.1942144,52.354259000000006,4.92223,3.956947,2.47,265.200012,3.790092,2.5,0,0,0,0,1,0
208.5,0.5340779999999999,-2.8529026,12.743156399999998,-0.0196388,0.07430980000000001,-0.06355859999999999,0.2430660000000001,-0.0766438,0.07383899999999999,,,,,,,,0,0,0,0,1,0
209.0,1.1715858,-4.055535,16.2680836,-0.148894,-0.07656959999999999,0.165845,-0.12925820000000002,-1.0826784,1.6743426,52.354251,4.9221949999999985,2.413275,2.54,253.899994,3.790092,2.5,0,0,0,0,1,0
209.5,0.7061819999999999,-3.809971800000001,15.4425596,0.21352179999999998,-0.0432174,0.1214976,-0.555725,-2.101936,4.129492,,,,,,,,0,0,0,0,1,0
210.0,0.5864209999999999,-1.1951550000000002,10.4620186,-0.04123225,0.16111099999999998,-0.092276,-0.555725,-2.101936,4.129492,52.354246,4.92216,3.412576,2.82,261.700012,3.790092,2.5,0,0,0,0,1,0
210.5,1.8064016000000005,4.1030926,6.1451872000000005,0.012675000000000002,-0.0250448,-0.16205779999999995,-0.03743100000000001,-0.10979200000000007,0.4208582000000001,,,,,,,,0,0,0,0,1,0
211.0,0.00843480000000003,-2.9347374,14.397614,-0.0469434,-0.07510359999999998,0.18038320000000002,-0.05734639999999998,-0.15702339999999995,-0.08218919999999996,52.35423400000001,4.922117,3.252806,3.94,248.699997,3.790092,2.5,1,0,0,0,0,0
211.5,-0.1529011999999999,-1.3063616000000002,11.200862800000001,0.016156999999999998,0.15213159999999998,-0.10958599999999999,0.243819,-0.091033,0.636115,,,,,,,,1,0,0,0,0,0
212.0,0.7231110000000001,1.1388042,7.784210999999999,0.003283250000000001,-0.09387949999999999,-0.046653250000000014,0.243819,-0.091033,0.636115,52.354219,4.922073,3.187024,3.55,247.0,3.790092,2.5,1,0,0,0,0,0
212.5,-0.11485560000000004,0.9457029999999996,8.505467800000002,0.027946400000000003,-0.0621534,0.0415986,0.2688926,0.14611820000000006,0.16572500000000004,,,,,,,,1,0,0,0,0,0
213.0,0.3857826000000001,-0.189033,11.728300999999998,-0.013285799999999995,-0.032436,0.1167328,-0.3514593999999999,-0.4007223999999999,0.30650700000000003,52.354204,4.922032,3.445524,3.43,239.399994,3.790092,2.5,1,0,0,0,0,0
213.5,0.9188440000000002,1.5947565999999995,6.1241302000000015,0.013988399999999991,0.0333218,0.0109648,0.3060187999999999,0.40977479999999994,-1.3008064,,,,,,,,1,0,0,0,0,0
214.0,-1.6983658,-2.9825336000000005,13.252229599999998,0.021723250000000013,0.04623325,0.03943799999999999,0.5916859999999999,0.500591,-1.7146979999999998,52.354188,4.921991,3.385175,3.61,240.399994,3.790092,2.5,1,0,0,0,0,0
214.5,-0.8665608,1.7835500000000004,7.095317400000001,-0.0083992,0.015210199999999997,-0.03402419999999999,0.4914432,0.3570196,-1.2730018,,,,,,,,1,0,0,0,0,0
215.0,0.605683,-0.8645269999999996,10.957692,-0.008491000000000005,0.029351000000000006,-0.15375,0.3012538,-0.43973,0.5182732,52.354171,4.921948,3.067317,3.66,239.100006,3.790092,2.5,1,0,0,0,0,0
215.5,0.477368,-1.9776682,12.340923,0.029045799999999997,-0.0562896,0.08170059999999997,0.043879799999999934,0.1765918,-0.4469023999999999,,,,,,,,1,0,0,0,0,0
216.0,-0.16181460000000006,0.04665999999999988,10.193365,0.009376400000000007,-0.063925,0.06664320000000001,-0.878698,-0.696014,0.232003,52.354156,4.921907,3.82252,3.41,239.100006,3.790092,2.5,1,0,0,0,0,0
216.5,0.6929616000000001,-0.6865608000000001,9.807163000000001,-0.061772000000000014,0.10243125,0.0014887500000000024,-0.878698,-0.696014,0.232003,,,,,,,,1,0,0,0,0,0
217.0,-0.2398804,-1.3282559999999999,11.171670600000002,0.011881000000000006,0.107662,-0.1649286,0.18300520000000006,-0.043499799999999963,-0.15626159999999994,52.35414,4.921865,3.57455,3.47,239.199997,3.790092,2.5,1,0,0,0,0,0
217.5,0.13441680000000006,1.6117453999999998,7.606364599999999,0.0307254,-0.1397006,-0.06215360000000001,-0.00424500000000001,0.128652,0.07781060000000001,,,,,,,,1,0,0,0,0,0
218.0,0.3919444000000001,0.6862016,8.213303999999999,0.0460882,-0.039888199999999985,0.17836719999999998,-0.1547012,-0.5402836,1.0726934,52.354128,4.921821,4.059674,3.54,245.800003,3.790092,2.5,1,0,0,0,0,0
218.5,-1.5927226,-1.7685949999999997,10.668579199999998,-0.051463999999999996,0.03756725,-0.006604999999999996,-0.098491,-0.7686149999999999,1.151225,,,,,,,,1,0,0,0,0,0
219.0,1.1513664,2.6779274,5.3671012000000005,-0.019394400000000003,-0.027640600000000008,0.0787076,-0.08275859999999999,-0.4337711999999999,0.4698424,52.354115,4.921774,4.1015,3.69,243.199997,3.790092,2.5,1,0,0,0,0,0
219.5,0.28378879999999995,0.6942176000000002,8.9013004,0.033566000000000006,0.0774252,-0.013468999999999998,-0.1000654,0.029689600000000024,0.026279200000000023,,,,,,,,1,0,0,0,0,0
220.0,-0.5961117999999999,-0.08177499999999985,9.3967944,-0.004458999999999996,-0.0164014,-0.10955519999999999,0.8356068000000001,1.1120802,-0.7952557999999998,52.3541,4.921727,4.128123,3.84,239.800003,3.790092,2.5,1,0,0,0,0,0
220.5,-0.7468,-1.4980266000000002,12.0908728,-0.025540999999999998,-0.01947075,0.1374025,0.916834,1.469373,-1.4152129999999998,,,,,,,,1,0,0,0,0,0
221.0,-1.1183454000000002,-0.6100502000000001,9.469655400000002,0.028954200000000006,0.06774299999999997,-0.24165119999999995,0.916834,1.469373,-1.4152129999999998,52.354085,4.92168,4.9643180000000005,3.53,239.800003,3.790092,2.5,1,0,0,0,0,0
221.5,1.1560921999999998,1.8441484000000001,7.8348788,-0.003542799999999999,-0.0785244,-0.012125399999999995,0.024482399999999998,-0.13124339999999995,0.15621300000000002,,,,,,,,1,0,0,0,0,0
222.0,1.2801002,-0.11635099999999993,10.4484992,0.011117399999999998,0.08167039999999999,0.07186639999999997,-0.08937020000000002,0.046988000000000016,-0.06411799999999995,52.354074,4.921638,6.688764999999999,3.09,243.399994,3.790092,2.5,1,0,0,0,0,0
222.5,-0.6704691999999999,0.8221736,8.059924,-0.004947800000000002,-0.09700240000000003,-0.015698999999999994,-0.552746,0.394218,0.10451500000000001,,,,,,,,1,0,0,0,0,0
223.0,-0.8615956,-4.1681773999999985,16.9451322,-0.02634275,-0.0608175,0.13541725,-0.552746,0.394218,0.10451500000000001,52.35406500000001,4.921594,7.18354,3.23,250.699997,3.790092,2.5,1,0,0,0,0,0
223.5,0.18771680000000007,-1.6271791999999998,7.133063999999999,0.1505128,-0.0035735999999999954,0.117802,-0.6619571999999999,0.3068292,-0.045851400000000035,,,,,,,,1,0,0,0,0,0
224.0,-1.0311271999999998,-0.19208380000000014,7.832366400000001,,0.133684,-0.08695420000000001,0.010776999999999991,-0.2101070000000001,-0.5641700000000001,52.354051,4.921547,7.254536999999999,4.08,241.5,3.790092,2.5,1,0,0,0,0,0
224.5,-0.9755536,1.9024134,11.378170799999998,0.08805360000000002,-0.008185400000000006,-0.026907799999999992,0.5882736,0.33640159999999997,0.7678034,,,,,,,,1,0,0,0,0,0
225.0,-0.7569694000000002,-1.2504892,7.953622800000001,0.08074625,-0.011720499999999991,-0.10369125,0.785067,0.475785,0.956777,52.35403400000001,4.921499,7.480253999999999,3.58,239.399994,3.790092,2.5,1,0,0,0,0,0
225.5,0.04498519999999999,1.7005194000000003,5.817848799999998,-0.022478999999999992,-0.011392399999999992,0.1157558,0.6678636,0.430048,0.535565,,,,,,,,1,0,0,0,0,0
226.0,0.10079759999999996,-0.08129600000000023,9.727421799999998,-0.028037799999999998,0.02589980000000001,-0.1086698,-0.27443320000000004,-0.23815800000000004,0.1888676,52.354019,4.921454,7.521101,3.56,240.600006,3.790092,2.5,1,0,0,0,0,0
226.5,1.1487942,-2.6278576,10.890573199999999,0.04602740000000001,-0.07180500000000001,-0.0014050000000000006,-0.3007974,0.03224819999999999,-0.2766482,,,,,,,,1,0,0,0,0,0
227.0,0.5246859999999999,2.9673396,6.2085372,0.022967799999999997,0.02086020000000001,0.0959946,-0.032726,2.394415,-2.611122,52.354001,4.921406,6.634817,4.18,237.300003,3.790092,2.5,1,0,0,0,0,0
227.5,0.6681360000000001,-2.9689544,13.443476,-0.006872249999999996,-0.017599999999999998,0.05165474999999999,-0.032726,2.394415,-2.611122,,,,,,,,1,0,0,0,0,0
228.0,-0.19316080000000016,-4.406921199999998,16.6424406,-0.041293199999999995,0.0248002,-0.013957799999999992,-0.07289220000000002,0.014249599999999947,-0.17532900000000012,52.353985,4.921359,7.314089,3.41,238.300003,3.790092,2.5,1,0,0,0,0,0
228.5,-0.24574279999999998,3.4533216,4.2351762000000015,0.0021685999999999928,0.0359788,0.0295038,-0.24818099999999996,-0.1249912,-0.2044906,,,,,,,,1,0,0,0,0,0
229.0,-1.6941781999999999,1.5364912,7.0831740000000005,-0.04370619999999999,-0.056809000000000005,-0.008185399999999987,-0.406444,0.405486,-1.172656,52.353972,4.921317,7.965535000000001,3.42,235.800003,3.790092,2.5,1,0,0,0,0,0
229.5,-0.2222932,0.8754139999999999,5.9626747999999985,0.02355550000000001,0.0258085,-0.098194,-0.406444,0.405486,-1.172656,,,,,,,,1,0,0,0,0,0
230.0,1.9890938,-3.385844,14.913326800000002,0.023731400000000017,-0.0626424,0.14354920000000002,-0.6730598000000001,0.232277,-0.9706332000000001,52.353957,4.921274,8.113439,3.56,240.899994,3.790092,2.5,1,0,0,0,0,0
230.5,1.4021940000000002,-0.23730819999999986,8.714959400000001,-0.009620999999999996,0.09071060000000002,-0.13334800000000002,0.16200639999999994,-0.279621,0.11207780000000003,,,,,,,,1,0,0,0,0,0
231.0,0.5563910000000001,1.0727622,8.993723199999998,0.0431868,0.005986199999999999,-0.009224000000000005,-0.28406600000000004,-0.196913,-0.017134599999999996,52.353943,4.921228,8.426502000000001,3.71,238.5,3.790092,2.5,1,0,0,0,0,0
231.5,-0.10929220000000006,-2.4812972,12.036017199999998,-0.002787000000000012,-0.07181275,0.016149250000000004,-1.09209,-0.438208,0.138548,,,,,,,,1,0,0,0,0,0
232.0,0.3477968,0.4913063999999999,9.2769136,-0.029931400000000007,0.083411,-0.05503719999999999,-1.09209,-0.438208,0.138548,52.35393300000001,4.921183,10.494883,3.15,244.600006,3.790092,2.5,1,0,0,0,0,0
232.5,-0.7168298000000001,-1.2260223999999995,10.393883399999998,0.014141199999999984,-0.0445308,0.010170599999999998,-0.2232012,-0.16608359999999994,-0.2596557999999999,,,,,,,,1,0,0,0,0,0
233.0,-0.09403799999999993,3.0766316000000002,5.9480787999999984,-0.02730480000000001,-0.0186308,-0.0198524,0.2766652,0.07442760000000001,-0.3739567999999999,52.353923,4.921138,10.311981,3.61,246.399994,3.790092,2.5,1,0,0,0,0,0
233.5,0.07064819999999998,0.4125227999999996,6.8392258,0.022112600000000003,-0.02122680000000001,0.1141674,1.009387,0.626402,-1.18143,,,,,,,,1,0,0,0,0,0
234.0,-0.8310272000000001,-0.5081159999999997,10.715778,0.020425,0.040736,-0.09044375,1.009387,0.626402,-1.18143,52.353913,4.921093,10.873952,3.3,248.899994,3.790092,2.5,1,0,0,0,0,0
234.5,-1.1766108000000002,-1.614557,12.439208,-0.0183254,-0.02281520000000001,0.0526552,0.16983700000000004,0.349617,-0.7160366,,,,,,,,1,0,0,0,0,0
235.0,-0.4578068,0.7220340000000002,9.007242800000002,-0.0187226,0.050242400000000006,0.039644,0.10495719999999999,-0.0620922,0.24177340000000005,52.353901,4.921049,11.297372,3.26,240.600006,3.790092,2.5,1,0,0,0,0,0
235.5,-0.3659226,-2.5780272,12.7335256,0.037689199999999985,0.003298800000000007,-0.2321218,0.680188,0.738748,-0.291522,,,,,,,,1,0,0,0,0,0
236.0,-0.6406183999999999,0.9138192000000002,9.466365199999998,0.0007635000000000003,-0.12736175,0.2163165,0.680188,0.738748,-0.291522,52.353887,4.921003,10.814172,3.73,243.5,3.790092,2.5,1,0,0,0,0,0
236.5,-1.431925,0.07950139999999982,9.682557,0.0035736000000000023,0.0996902,-0.09144400000000001,0.6593076,0.614837,-0.5138178,,,,,,,,1,0,0,0,0,0
237.0,-1.5316456,2.0117656000000004,6.0169322,-0.014843599999999997,-0.024891999999999997,-0.02098260000000001,-0.002238000000000029,0.058040600000000026,-0.13951980000000005,52.353872,4.920954,9.719273,3.66,240.300003,3.790092,2.5,1,0,0,0,0,0
237.5,-1.1846864,0.615015,8.112626200000001,0.041782,0.01808120000000001,0.042515,0.08534459999999999,-0.8019910000000001,0.6213292000000001,,,,,,,,1,0,0,0,0,0
238.0,0.90688,-0.3092124,11.891132,-0.01989075,-0.11629025,0.02370850000000001,0.032487,-0.9393870000000002,0.520001,52.353856,4.920902,9.037763,3.89,241.899994,3.790092,2.58556,0,0,0,1,0,0
238.5,0.27044860000000004,0.6888340000000001,9.2886384,0.0011911999999999975,-0.023578799999999997,0.1168856,0.032487,-0.9393870000000002,0.520001,,,,,,,,0,0,0,1,0,0
239.0,0.05593219999999999,1.9488342,6.8179292,0.0007025999999999921,0.19748720000000006,-0.08362499999999999,0.3650684,0.3241336,-0.4474195999999999,52.35384000000001,4.920853,8.770317,3.48,241.800003,3.790092,2.5,0,0,0,1,0,0
239.5,-0.17563299999999998,-1.6779667999999994,12.219966199999998,-0.0094682,0.21569,-0.3828484,1.0131001999999998,-0.4221894000000001,0.3418584,,,,,,,,0,0,0,1,0,0
240.0,-0.956172,1.5441483999999999,7.764171399999999,0.11239599999999997,0.0511586,-0.452974,2.136456,0.6419729999999999,0.350349,52.353826,4.920803,8.444036,3.75,247.800003,3.790092,2.5,0,0,0,1,0,0
240.5,-0.7649253999999999,-3.1102506000000005,11.6745816,0.119726,-0.01320975,-0.4214465,2.136456,0.6419729999999999,0.350349,,,,,,,,0,0,0,1,0,0
241.0,-0.8397611999999999,-3.0461230000000006,12.683156399999998,0.026480399999999998,-0.005894799999999996,-0.41464300000000004,1.6774374,0.06833319999999997,0.08650539999999997,52.353818,4.920746,8.177999999999999,3.9,259.899994,3.790092,2.5,0,0,0,1,0,0
241.5,-0.25621160000000004,1.8568904,5.4300922,0.08860359999999998,-0.05836660000000001,-0.2947643999999999,0.492979,-0.20435899999999999,-0.14876279999999995,,,,,,,,0,0,0,1,0,0
242.0,-0.3261418,-3.0512078,11.120643,0.01230859999999999,-0.2309308,0.041415399999999984,0.360379,-0.02125,1.734048,52.353821,4.920686,7.6357339999999985,4.18,279.799988,3.790092,2.5,1,0,0,0,0,0
242.5,-1.3926227999999998,0.4024130000000003,8.409814800000001,0.010346249999999987,0.01561475,0.01343875,0.360379,-0.02125,1.734048,,,,,,,,1,0,0,0,0,0
243.0,0.8458627999999999,-0.5733802000000001,10.1172128,0.004276000000000013,-0.006749799999999998,-0.1170384,0.3720024,-0.5577441999999999,1.6829561999999998,52.353834,4.92063,7.18589,3.77,294.600006,3.790092,2.5,1,0,0,0,0,0
243.5,-0.30604200000000004,-2.8432114000000004,13.1657888,0.003878799999999999,0.004886600000000003,-0.0312754,-0.29937040000000004,-0.2693246,-0.2372054000000001,,,,,,,,1,0,0,0,0,0
244.0,-0.3691526,0.08338980000000004,10.357631800000002,-0.0368952,-0.013774599999999998,-0.0311226,-0.430591,-0.25010920000000003,-0.06314059999999999,52.353851,4.9205809999999985,6.819064999999998,3.7,302.200012,3.790092,2.5,1,0,0,0,0,0
244.5,-0.4640882000000001,-0.4996214000000002,15.5456902,0.17900900000000006,0.0248308,-0.1170384,-0.343354,0.337032,-0.397804,,,,,,,,1,0,0,0,0,0
245.0,-2.6854050000000003,2.8756342000000013,7.805208,-0.18298699999999998,-0.09029125,0.2522800000000001,-0.343354,0.337032,-0.397804,52.353868,4.920535,6.9529130000000015,3.53,300.299988,3.790092,2.5,0,0,0,1,0,0
245.5,0.8047660000000001,-1.0304091999999998,9.9626364,-0.0693314,0.222379,-0.13124059999999999,0.12981159999999994,-0.0280456,-0.29607340000000004,,,,,,,,0,0,0,1,0,0
246.0,-0.9180062,0.33242299999999964,8.5976512,-0.13643280000000002,,,2.41823,0.2204258,-0.036580600000000005,52.353883,4.9204940000000015,6.455841,3.01,303.799988,3.790092,2.5,0,0,0,1,0,0
246.5,2.3429324,-5.9987468,18.277217,,0.17073179999999993,,1.6515891999999996,-1.0547828,2.3775942000000003,,,,,,,,0,0,0,1,0,0
247.0,-2.0251656000000002,-0.3413957999999999,9.584212,,,0.15339874999999994,1.309669,-0.491583,2.128118,52.353907,4.920464,6.667160000000001,3.84,324.5,3.790092,2.5,0,0,0,1,0,0
247.5,0.4368096,-0.1874176,10.3611016,-0.0221128,-0.15017660000000002,0.2163928,0.48899319999999996,-0.4647874,1.4775038,,,,,,,,0,0,0,1,0,0
248.0,-1.2669996,-0.1258026,9.787003599999998,0.0352458,-0.131393,0.125529,-0.4808374000000001,-0.40974440000000006,0.14982260000000006,52.353937,4.92045,6.844808,3.49,347.799988,3.790092,2.5,1,0,0,0,0,0
248.5,2.6018953999999996,-0.5952743999999996,9.548798199999998,0.007543799999999998,0.08203679999999999,0.18334579999999998,-0.6415877999999999,0.7310515999999999,0.09428160000000001,,,,,,,,1,0,0,0,0,0
249.0,1.2696318000000002,-0.5528017999999999,12.688958999999999,-0.01844,0.21276575,-0.31775525,-0.971866,1.356242,0.312205,52.353968,4.920448,6.111514,3.43,357.700012,3.790092,2.5,1,0,0,0,0,0
249.5,1.3453643999999998,-1.1379065999999998,12.9556986,0.027366,-0.1121516,0.0948036,-0.971866,1.356242,0.312205,,,,,,,,1,0,0,0,0,0
250.0,-0.9819544,-1.3855638000000003,12.2739238,-0.0165232,0.0010384000000000012,0.1045772,0.25681000000000004,0.37095159999999994,-0.8767516000000001,52.354001,4.920449,6.229541,3.76,356.0,3.790092,2.5,1,0,0,0,0,0
250.5,0.6342174,0.28426719999999983,9.1350192,-0.003665199999999997,-0.021624,-0.019639000000000004,-1.5113293999999995,-2.1957422,1.8213826,,,,,,,,1,0,0,0,0,0
251.0,1.0872983999999999,-0.7795816,11.197273599999999,-0.010231600000000002,0.04052979999999999,-0.01817279999999999,0.2213916000000001,1.3380732,-1.9882336000000005,52.35403400000001,4.920445,5.933932,3.66,351.200012,3.790092,2.5,1,0,0,0,0,0
251.5,-0.3809972,-0.589651,10.8752592,0.0400105,0.0361545,0.0438665,-0.3095156,0.2428236000000001,-0.5896358,,,,,,,,1,0,0,0,0,0
252.0,-0.16313060000000001,0.8707481999999999,8.1063446,-0.0019548,-0.060718,-0.07724160000000001,-0.11683720000000003,-0.1828674,0.009964200000000013,52.354067,4.9204370000000015,5.722975,3.7,350.200012,3.790092,2.5,1,0,0,0,0,0
252.5,0.3119641999999999,-0.9999008,11.427103599999999,-0.007391199999999999,0.06358899999999999,0.08579339999999999,-0.464158,0.322573,-0.4021389999999999,,,,,,,,1,0,0,0,0,0
253.0,-0.13998019999999994,0.5952743999999999,6.9200428,0.023609200000000004,-0.017256200000000006,-0.1042412,-0.464158,0.322573,-0.4021389999999999,52.3541,4.920429,5.457148,3.68,349.600006,3.790092,2.5,1,0,0,0,0,0
253.5,0.8070989999999998,1.3639688,4.9727644,-0.002749000000000005,0.024281,-0.07307274999999999,0.08548020000000002,-0.21535140000000003,-0.2835310000000001,,,,,,,,1,0,0,0,0,0
254.0,0.3348157999999999,-0.4963912000000002,10.694481800000002,0.003604,-0.029778799999999994,0.14932159999999994,-0.27228260000000004,-0.23841519999999994,0.08591360000000002,52.354132,4.920421,5.375891,3.67,350.100006,3.790092,2.5,1,0,0,0,0,0
254.5,-0.8459228000000001,0.4430908,9.493284800000001,-0.0277018,-0.0021379999999999954,-0.17207580000000006,0.051266999999999986,-0.336199,0.5492630000000001,,,,,,,,1,0,0,0,0,0
255.0,1.4114064,1.1394022,6.195616,0.0208298,-0.0428814,0.2387192,-0.5509044,-0.006670399999999965,0.2636088,52.354166,4.920414,5.481708,3.85,352.299988,3.790092,2.5,1,0,0,0,0,0
255.5,-1.7751153999999998,1.3927424,7.299604799999999,0.0098652,-0.0005500000000000005,-0.0953532,0.3067962,-0.4950681999999999,1.7791767999999997,,,,,,,,1,0,0,0,0,0
256.0,0.9622734000000001,-0.26596260000000005,11.328819200000002,-0.009773749999999998,0.0672315,0.0492875,0.2540840000000001,0.92066,-1.2712212,52.354199,4.920406,5.3468019999999985,3.67,351.100006,3.790092,2.5,1,0,0,0,0,0
256.5,-0.4668398,-0.60347,10.725767800000002,0.02028,0.0617566,-0.13515000000000002,-0.4267759999999999,2.0048802,-2.176546,,,,,,,,1,0,0,0,0,0
257.0,1.3779666000000002,0.5581856000000001,8.935039,0.0170122,-0.10036220000000004,0.060260000000000015,-0.4074136,-0.12812059999999995,-0.003967000000000001,52.354233,4.9203980000000005,5.210615,3.96,352.100006,3.790092,2.5,1,0,0,0,0,0
257.5,-1.1643473999999998,-1.2750754,11.7421786,-0.0113008,0.0494176,-0.005375600000000003,-0.12061379999999995,0.0672966,-0.2443334000000001,,,,,,,,1,0,0,0,0,0
258.0,-0.5190034,-1.5512668,12.6475626,0.013476750000000004,-0.10842525,0.060931999999999986,-0.689837,0.46171,-1.145968,52.354267,4.920389,4.788722,3.8,351.200012,3.790092,2.5,1,0,0,0,0,0
258.5,-0.6905686,0.6116654,8.647601199999999,-0.007666199999999998,0.0250446,0.09962939999999999,-0.689837,0.46171,-1.145968,,,,,,,,1,0,0,0,0,0
259.0,1.1769698,-0.7867002,12.3357782,-3.039999999999987e-05,0.043339599999999985,-0.0981326,-0.2486466,0.040896599999999984,-0.0981248,52.3543,4.9203800000000015,4.425543,3.79,351.700012,3.790092,2.5,1,0,0,0,0,0
259.5,1.1160722,0.245085,8.827242199999997,-0.008429800000000001,-0.08047939999999999,0.08722919999999999,-0.17431999999999995,-0.08541880000000003,-0.05510019999999999,,,,,,,,1,0,0,0,0,0
260.0,-0.20195419999999975,2.4836901999999994,5.3230732000000005,-0.00885724999999999,0.08983274999999999,0.015232999999999984,0.409272,0.167967,-0.040064,52.354333,4.92037,4.2643900000000015,3.83,349.600006,3.790092,2.5,1,0,0,0,0,0
260.5,0.5368297999999999,-1.9812572000000004,11.1156782,0.019272000000000004,-0.0556484,0.0521966,0.409272,0.167967,-0.040064,,,,,,,,1,0,0,0,0,0
261.0,-0.8303691999999998,-0.5175078,8.397790400000002,-0.014049599999999995,-0.0346046,0.16257699999999994,-0.23928420000000006,-0.07370939999999998,0.1203134,52.354365,4.920357,3.826319,3.74,348.100006,3.790092,2.5,1,0,0,0,0,0
261.5,0.8676972000000001,-1.0073185999999996,11.2170142,0.005405999999999999,0.0013134000000000034,-0.055678599999999995,0.005389399999999965,-0.21076939999999994,0.168777,,,,,,,,1,0,0,0,0,0
262.0,0.5481956,-1.191207,11.2212016,0.054884800000000004,-0.008704599999999995,0.15426920000000002,-0.5698740000000001,0.7850295999999999,-0.5338556,52.354398,4.920342,3.5958870000000003,3.87,345.5,3.790092,2.5,1,0,0,0,0,0
262.5,-0.5789438,-4.366423,13.808740600000002,-0.0681475,0.10319475,-0.06112275,-0.526571,1.099277,-0.534369,,,,,,,,1,0,0,0,0,0
263.0,-0.08530420000000002,1.6536797999999997,9.922496800000001,0.0217156,-0.0999042,0.0849076,-0.526571,1.099277,-0.534369,52.354431,4.920323000000002,3.4878910000000003,4.11,342.5,3.790092,2.5,1,0,0,0,0,0
263.5,1.2460028,1.5470196000000003,9.5203834,0.0259306,0.17152579999999998,-0.007207999999999981,0.3031856000000001,-0.1252094,-0.04145539999999996,,,,,,,,1,0,0,0,0,0
264.0,-0.8401797999999999,-2.480639,12.9418802,0.0017102000000000007,-0.1453512,-0.0007635999999999976,-0.05219340000000002,-0.15827120000000003,-0.1169064,52.354464,4.920302,3.4536839999999995,3.68,339.899994,3.790092,2.5,1,0,0,0,0,0
264.5,0.26135600000000003,-1.4762517999999996,11.725489,0.002557750000000005,-0.049364000000000005,0.17035,-0.01045,0.063404,-0.312887,,,,,,,,1,0,0,0,0,0
265.0,0.7051649999999999,0.9321242000000004,9.096734199999998,-0.04361439999999999,0.092574,0.0180504,-0.01045,0.063404,-0.312887,52.354495,4.920277,3.247294,4.11,336.100006,3.790092,2.5,1,0,0,0,0,0
265.5,-2.4504297999999998,2.3225334,3.9370307999999996,0.07116379999999997,-0.023212200000000002,0.028587599999999987,0.028427000000000025,-0.07987819999999997,0.1537466,,,,,,,,1,0,0,0,0,0
266.0,-0.3229113999999999,0.9590431999999999,7.723911799999999,0.011025999999999998,0.0269996,-0.047524000000000004,0.0691788,-0.2721832,0.112665,52.354526,4.920249,2.909187,3.98,333.5,3.790092,2.5,1,0,0,0,0,0
266.5,-0.655095,0.15732820000000008,9.6248296,-0.016760000000000004,-0.01721825,0.10308075,-0.037220600000000006,-0.8448948000000002,0.9310146,,,,,,,,1,0,0,0,0,0
267.0,0.1237688,-0.5518448000000001,9.523793,-0.007116400000000002,0.10170599999999999,-0.1223526,-0.142238,-1.182652,1.297249,52.354557,4.92022,3.032078,3.99,331.799988,3.790092,2.5,1,0,0,0,0,0
267.5,-0.03960120000000002,-0.04067799999999998,10.942976199999999,-0.0030848000000000004,-0.12559,0.030389799999999998,-0.029267,-0.7691456000000001,0.8122811999999999,,,,,,,,1,0,0,0,0,0
268.0,-0.3423532000000001,-0.5045264000000002,10.3436936,0.010842599999999996,0.046974,0.055465000000000014,0.15260619999999994,0.024003,0.002205600000000002,52.354589,4.920191,3.274538,4.0,332.799988,3.790092,2.5,1,0,0,0,0,0
268.5,-0.7152145999999998,-0.3387640000000001,9.884272,0.012400200000000005,-0.0155766,-0.029687399999999982,-0.4121422000000001,-0.053305399999999996,0.33470760000000005,,,,,,,,1,0,0,0,0,0
269.0,-0.6090932,-0.8750551999999999,9.344451,0.0006107500000000013,0.05722875,-0.06749875,-1.924973,-0.29842,0.5487350000000001,52.354621,4.920163,3.22348,3.99,333.200012,3.790092,2.5,1,0,0,0,0,0
269.5,0.3370888,0.4706081999999999,9.2901338,-0.011331199999999996,0.008307400000000001,-0.0593436,-1.924973,-0.29842,0.5487350000000001,,,,,,,,1,0,0,0,0,0
270.0,0.538744,0.07052859999999994,9.230612400000002,0.005192199999999997,-0.0739738,0.003939799999999996,-0.009202599999999995,-0.1869216,0.10978479999999996,52.354653000000006,4.920137,3.124328,3.99,334.0,3.790092,2.5,1,0,0,0,0,0
270.5,0.4020539999999999,-0.3755538000000001,9.5960564,0.011575600000000002,0.0065969999999999996,0.07992919999999999,-0.178595,0.0410058,-0.049828,,,,,,,,1,0,0,0,0,0
271.0,0.7269992000000001,-0.5440081999999999,10.9702542,0.00507775,-0.01110975,-0.015271000000000002,-0.153872,0.247441,-0.05354400000000002,52.354685,4.920111,3.165985,3.94,333.600006,3.790092,2.5,1,0,0,0,0,0
271.5,0.01411780000000007,-1.0951350000000002,10.7773928,-0.0094986,-0.005436600000000001,0.0197304,-0.153872,0.247441,-0.05354400000000002,,,,,,,,1,0,0,0,0,0
272.0,1.5218952,-0.13561320000000002,9.309516,0.0140192,0.0354904,0.002840200000000015,-0.2466572,0.09836460000000001,0.15245899999999998,52.354717,4.920086,3.036194,3.93,334.600006,3.790092,2.5,1,0,0,0,0,0
272.5,0.15116659999999998,-0.09140600000000004,10.4958776,0.010353800000000002,-0.034238199999999996,0.1881714,-0.17928179999999996,-0.06961160000000001,0.016929199999999978,,,,,,,,1,0,0,0,0,0
273.0,0.9713064,-0.9157932,11.937194200000002,0.0073912,0.064536,-0.2279986,1.4873586,0.28512459999999995,-0.062398199999999994,52.354748,4.9200599999999985,3.062408,3.93,332.600006,3.790092,2.5,1,0,0,0,0,0
273.5,0.7302297999999999,0.4440478,8.977751199999998,0.02557925,-0.1601185,0.1056385,1.638226,0.420476,-0.07347200000000001,,,,,,,,1,0,0,0,0,0
274.0,0.2570491999999999,0.13872379999999995,9.082437,-0.013224600000000005,0.0299012,0.119604,1.243093,0.3893992,-0.097534,52.35478,4.920033,2.822569,3.9,332.5,3.790092,2.5,1,0,0,0,0,0
274.5,-0.1258624,0.8568698000000001,8.2510508,-0.010170599999999998,0.035887199999999994,0.008368800000000004,-0.2596684,-0.020909000000000018,0.049771800000000005,,,,,,,,1,0,0,0,0,0
275.0,-1.1984454,-0.24861420000000004,9.3987682,0.004184400000000002,0.08878680000000001,-0.1083338,0.2330834,0.2196556,-0.1929504,52.35481,4.9200040000000005,2.584375,3.91,330.5,3.790092,2.5,1,0,0,0,0,0
275.5,-0.4232903999999998,0.07375860000000001,8.765746799999999,0.00839925,-0.1011715,0.13453925,0.395543,0.4213050000000001,-0.4256130000000001,,,,,,,,1,0,0,0,0,0
276.0,-0.5975476,1.4385648000000002,7.704889,-0.052655000000000014,0.07742479999999999,-0.092971,0.395543,0.4213050000000001,-0.4256130000000001,52.354841,4.919974,2.659962,3.98,330.799988,3.790092,2.5,1,0,0,0,0,0
276.5,-0.6139384,1.0387841999999998,7.550372200000001,0.02321220000000001,0.0520442,-0.1542694,0.2948676,0.16200560000000006,0.19993100000000005,,,,,,,,1,0,0,0,0,0
277.0,0.5605186000000001,-0.40923259999999995,11.2439936,0.0745844,-0.11884020000000002,0.0329244,-0.320042,-0.3736114,0.06262800000000003,52.354872,4.919943,2.626908,4.08,332.100006,3.790092,2.5,1,0,0,0,0,0
277.5,-1.064447,-4.287340200000001,12.290075199999999,-0.033367500000000015,0.04188125,0.02031075,-0.373913,-0.72513,0.4707100000000001,,,,,,,,1,0,0,0,0,0
278.0,1.0999806,0.9098108,9.093982400000002,-0.017470199999999998,-0.06490259999999999,0.0106898,-0.373913,-0.72513,0.4707100000000001,52.354904,4.9199150000000005,2.59288,4.05,334.399994,3.790092,2.5,1,0,0,0,0,0
278.5,0.5411964,1.2912268,8.364649799999999,0.006047399999999997,0.0379334,0.06991119999999999,-0.2614954,-0.6213632,0.29771200000000003,,,,,,,,1,0,0,0,0,0
279.0,-0.18921260000000006,-1.2894321999999998,11.219167800000001,0.0318556,0.01820339999999999,-0.120734,0.13411340000000002,-0.046770399999999976,0.053067200000000016,52.354936,4.9198879999999985,2.568679,4.07,335.600006,3.790092,2.5,1,0,0,0,0,0
279.5,0.0827916,-1.4715858000000002,11.3462862,-0.041904199999999996,-0.0225708,0.04407279999999999,0.05119980000000002,-0.3937852,0.3637638,,,,,,,,1,0,0,0,0,0
280.0,-0.7021738000000001,-0.7612765999999997,9.800463,0.047608,-0.06429175,0.02741175,0.472222,-1.234063,1.325243,52.354967,4.9198629999999985,2.468367,3.96,334.899994,3.790092,2.5,1,0,0,0,0,0
280.5,-2.0472394,-0.6339188000000002,8.368538599999999,-0.011819800000000014,-0.008521400000000002,0.053601800000000005,0.472222,-1.234063,1.325243,,,,,,,,1,0,0,0,0,0
281.0,0.5864809999999999,-2.6002802000000003,10.9304136,0.008796199999999994,0.0510974,-0.061695599999999975,0.16970840000000004,-0.3073226000000001,-0.1622088,52.354998,4.919834,2.417491,4.02,331.299988,3.790092,2.5,1,0,0,0,0,0
281.5,0.5961717999999999,-0.9907482,11.6878618,-0.0025959999999999985,-0.027366,0.0707974,-0.44971400000000006,0.14671920000000005,-0.11120960000000002,,,,,,,,1,0,0,0,0,0
282.0,0.29401819999999995,1.7873189999999999,6.8334828000000005,0.00962075,0.053373000000000004,-0.04306475,-0.8628049999999999,1.205227,-1.279727,52.35503,4.919805,2.477272,4.18,331.299988,3.790092,2.5,1,0,0,0,0,0
282.5,-0.4527819999999999,0.2967099999999999,7.838109399999999,-0.0309394,-0.029381800000000007,0.010201200000000002,-0.8628049999999999,1.205227,-1.279727,,,,,,,,1,0,0,0,0,0
283.0,0.6752545999999999,0.446381,8.004889,0.0012214000000000005,0.0603822,-0.08017360000000001,-0.11210019999999997,0.5182095999999999,-0.4623872000000001,52.355061,4.9197760000000015,2.332341,3.9,331.600006,3.790092,2.5,1,0,0,0,0,0
283.5,-0.1434496,-0.3226722000000001,9.3659266,0.002107399999999998,-0.0978882,0.0554038,-0.3997272,0.010278799999999994,0.0909854,,,,,,,,1,0,0,0,0,0
284.0,0.3580260000000001,-0.7396814000000002,11.4833952,0.053540999999999984,0.0382084,0.0484098,-0.4074596,0.12742880000000004,-0.5159614,52.355092,4.91975,2.227634,3.89,334.0,3.790092,2.5,1,0,0,0,0,0
284.5,-1.1538188000000005,-1.1135596,11.0176924,-0.03855975,0.056656249999999984,-0.06425349999999999,-0.654528,0.322323,-0.77978,,,,,,,,1,0,0,0,0,0
285.0,-0.401695,0.5467600000000001,9.124610800000001,0.008521400000000005,-0.0689952,-0.016279200000000004,-0.5967484000000001,0.3037558,-0.6533126,52.355122,4.919726,2.267762,3.8,333.899994,3.790092,2.5,1,0,0,0,0,0
285.5,1.0706083999999998,-0.6126224,10.8308722,-0.01927220000000001,0.017867200000000003,0.012278,-0.0074517999999999815,0.008206799999999959,0.1693196,,,,,,,,1,0,0,0,0,0
286.0,1.0046864,-0.4938188,10.246784199999999,0.0163708,0.007269199999999996,0.037903000000000006,-0.7328972,-0.1454282,0.2047364,52.355151,4.919701,2.061613,3.66,333.600006,3.790092,2.5,1,0,0,0,0,0
286.5,-0.11587240000000006,-0.2855236,10.106266,-0.017676499999999998,0.011988,0.04027775,-0.843881,-0.888085,0.8567319999999998,,,,,,,,1,0,0,0,0,0
287.0,-0.0457026,0.6774679999999997,9.6296754,0.0002442,0.06142080000000001,-0.1220472,-0.843881,-0.888085,0.8567319999999998,52.35518,4.919677,2.122126,3.7,333.0,3.790092,2.5,1,0,0,0,0,0
287.5,-0.585344,-0.5924630000000002,9.5316296,0.0333522,-0.1168246,0.052319,-0.3400638,-0.3589720000000001,0.3078188,,,,,,,,1,0,0,0,0,0
288.0,-0.6449258000000001,0.4984847999999998,8.223234199999998,-0.010231800000000004,0.007727199999999998,0.1058292,-0.07170200000000003,-0.11258659999999998,0.18391860000000002,52.355209,4.919651999999999,1.9650490000000005,3.73,333.0,3.790092,2.5,1,0,0,0,0,0
288.5,-1.0162914,-0.7948953999999999,10.3094164,-0.000954499999999997,0.091627,-0.09338325,-0.132403,-0.692974,1.635875,,,,,,,,1,0,0,0,0,0
289.0,0.16002000000000005,-1.1014164,10.196833999999999,0.026907800000000003,-0.03936919999999999,-0.007330199999999999,-0.132403,-0.692974,1.635875,52.355238,4.919628,1.872669,3.51,332.799988,3.790092,2.5,1,0,0,0,0,0
289.5,0.7538590000000001,-1.6311275999999997,12.0740038,-0.014324399999999998,0.0118198,-0.0052531999999999995,0.02001900000000001,-0.5103821999999999,0.9634866,,,,,,,,1,0,0,0,0,0
290.0,-0.6618548000000001,-0.2930612,8.794879199999999,0.011911600000000005,-0.0660326,0.07537840000000001,-0.3723028,-0.1422184,0.019483200000000013,52.355266,4.919605000000002,1.667677,3.38,332.299988,3.790092,2.5,1,0,0,0,0,0
290.5,0.9982858,0.7943571999999999,9.2292964,-0.0197912,0.07806620000000003,-0.037261800000000005,1.0519576000000002,0.0447654,0.02645700000000002,,,,,,,,1,0,0,0,0,0
291.0,-0.967179,-0.23150539999999986,9.8736838,-0.011529500000000002,0.03771975,0.04730250000000001,1.363821,-0.049546,-0.141698,52.355292,4.919582,1.612769,3.38,332.0,3.790092,2.5,1,0,0,0,0,0
291.5,-0.1618144,0.11001000000000012,9.336734199999999,-0.009009999999999999,0.062459199999999986,-0.28453259999999997,1.1401586000000001,-0.1699816,0.4655326,,,,,,,,1,0,0,0,0,0
292.0,-0.1243072,-1.2876976,11.0111116,0.0378724,-0.1477334,0.0071774,0.2494022,0.10809299999999997,-0.672601,52.35532,4.919559,1.6923849999999998,3.67,334.5,3.790092,2.5,1,0,0,0,0,0
292.5,-0.056051800000000096,-1.1906683999999998,12.574522,0.011545200000000002,-0.006658200000000014,0.1400672,-1.2860479999999999,0.49022079999999996,0.019645999999999997,,,,,,,,1,0,0,0,0,0
293.0,0.9795618,0.4181458000000001,9.0171726,-0.0010689999999999996,-0.031955000000000004,0.0042760000000000055,-0.956825,0.41724399999999995,-0.048392,52.355349,4.919536,1.518829,3.63,335.399994,3.790092,2.5,1,0,0,0,0,0
293.5,0.48897299999999994,-1.5003596,11.8273632,0.001801999999999996,0.033260800000000014,0.07580599999999997,-0.956825,0.41724399999999995,-0.048392,,,,,,,,1,0,0,0,0,0
294.0,0.1708476000000001,0.9740582,7.6143804,-0.024678200000000004,-0.022693200000000004,0.0559534,-0.45506660000000004,0.189411,-0.15137839999999994,52.355378,4.9195129999999985,1.6468470000000002,3.74,335.299988,3.790092,2.5,1,0,0,0,0,0
294.5,0.015792800000000006,-0.3372682,10.252526800000002,0.054640199999999986,0.0752564,0.035307,0.021179800000000016,-0.027909400000000008,0.08680379999999996,,,,,,,,1,0,0,0,0,0
295.0,-0.7054041999999999,-0.09619139999999997,8.970691799999997,-0.0470735,0.020081499999999988,-0.18207075,0.923122,0.4380350000000001,0.276915,52.355407,4.919487,1.538598,3.8,333.0,3.790092,2.5,1,0,0,0,0,0
295.5,1.2151352000000002,0.05294120000000002,10.181400399999998,0.031061599999999998,-0.0280682,-0.04792120000000001,0.923122,0.4380350000000001,0.276915,,,,,,,,1,0,0,0,0,0
296.0,-0.5087142,-1.6085749999999996,11.395219599999999,-0.008551599999999998,-0.014171599999999998,0.07012539999999999,0.6671151999999999,0.27858160000000004,0.07177880000000003,52.355437,4.919461,1.412587,3.83,333.200012,3.790092,2.5,1,0,0,0,0,0
296.5,0.186939,-0.7296914000000001,11.2702546,-0.0213492,-0.0611152,0.0447752,-0.0972056,0.013061799999999991,0.04751599999999999,,,,,,,,1,0,0,0,0,0
297.0,2.2567310000000003,-3.1672,11.0630362,0.05299079999999999,0.0715914,-0.014293799999999997,-0.27255999999999997,-0.11547099999999995,0.42895559999999994,52.355467,4.9194330000000015,1.245073,3.85,333.799988,3.790092,2.5,1,0,0,0,0,0
297.5,0.4986046000000001,-1.1603992,11.122438,-0.03752875,-0.029626,0.03504750000000001,-0.3880071999999999,0.6934773999999999,-1.4872260000000002,,,,,,,,1,0,0,0,0,0
298.0,0.2075172,-1.9417157999999999,11.8912516,0.031580800000000006,-0.017622999999999996,0.09315419999999999,0.22695,-0.7736050000000001,2.5863099999999997,52.355497,4.919405,1.449017,3.87,332.600006,3.790092,2.5,1,0,0,0,0,0
298.5,-0.28995040000000005,0.02590239999999979,8.2133638,-0.015729399999999998,0.0707972,-0.17476339999999996,-0.16711219999999996,-3.4538752,,,,,,,,,1,0,0,0,0,0
299.0,1.4615958,2.1464816000000004,5.3450276,0.0007636000000000003,-0.08695399999999999,0.11987860000000003,-0.2523158,-0.060811799999999985,-0.08107799999999997,52.355527,4.919377,1.6653509999999998,3.8,331.299988,3.790092,2.5,1,0,0,0,0,0
299.5,1.680539,-0.5870191999999999,12.521820199999999,-0.0080555,0.07055275,-0.008819249999999997,-0.1820946,0.1111138,-0.6527466000000001,,,,,,,,1,0,0,0,0,0
300.0,0.488435,0.16959140000000006,7.940701400000001,0.033841,0.04166,-0.10668439999999997,-0.332272,0.796426,-1.481575,52.355556,4.919348,1.837496,3.88,330.899994,3.790092,2.5,1,0,0,0,0,0
300.5,-0.6474978,-1.4788842,10.784153,-0.0341156,-0.006383399999999993,-0.0164928,-0.332272,0.796426,-1.481575,,,,,,,,1,0,0,0,0,0
301.0,-0.05629099999999998,-0.053838399999999814,8.8094156,0.0271216,-0.1128846,0.1423274,-0.434004,-0.5006145999999999,0.15239819999999996,52.355586,4.919322,2.121764,3.61,333.5,3.790092,2.5,1,0,0,0,0,0
301.5,0.17706899999999998,-0.9350556,10.402617,-0.0018325,0.16657075,-0.13900574999999998,0.3721938,0.4450930000000001,-0.6286318000000001,,,,,,,,1,0,0,0,0,0
302.0,-1.3030113999999997,-1.948655,11.765030400000002,0.011392600000000004,0.010384200000000005,-0.1398536,0.28790340000000003,-0.08054399999999999,0.4743523999999999,52.355616,4.9193,1.7040080000000002,3.65,336.399994,3.790092,2.5,1,0,0,0,0,0
302.5,-0.1073780000000002,-2.6603997999999995,13.297692999999999,-0.013957799999999996,-0.11306779999999997,0.027885200000000002,-0.5431521999999999,-1.1057399999999995,-0.04997700000000034,,,,,,,,1,0,0,0,0,0
303.0,-1.2948162,1.3566704,9.5847504,0.014965799999999996,0.0038177999999999992,0.14764159999999998,0.9941846,-0.11302299999999997,0.10956700000000004,52.355647,4.9192800000000005,1.320922,3.58,336.899994,3.790092,2.5,1,0,0,0,0,0
303.5,-0.4204787999999999,-1.1907283999999998,9.957313,-0.013285999999999996,0.004184200000000003,-0.04669939999999999,-1.323208,-0.3037364000000001,-0.6940453999999999,,,,,,,,1,0,0,0,0,0
304.0,0.4467998,-0.656411,11.129078000000002,0.0017562500000000009,0.057877749999999985,0.013896749999999992,-0.5184045999999999,0.09406339999999994,-0.316322,52.35567800000001,4.91926,1.372651,3.71,337.700012,3.790092,2.5,1,0,0,0,0,0
304.5,-2.0297718,-0.5823533999999999,9.8475418,0.010018,0.011728200000000005,-0.10094240000000003,-0.8311639999999999,1.574649,-2.423793,,,,,,,,1,0,0,0,0,0
305.0,0.08087720000000008,0.32213359999999996,9.1636136,0.017500599999999998,-0.016676399999999997,0.008613000000000016,-0.316152,0.09465060000000003,-0.16225499999999998,52.355709,4.919239,1.261173,3.75,337.5,3.790092,2.5,1,0,0,0,0,0
305.5,0.8983854000000001,-0.3081953999999999,10.1872034,0.0098956,-0.011605999999999998,-0.004520199999999999,0.2624916,-0.3951474,0.13735120000000006,,,,,,,,1,0,0,0,0,0
306.0,-0.30532440000000005,-2.4299114,14.667045800000002,0.004695749999999999,-0.01485125,0.1035385,-0.9501776000000002,0.2590816,-0.2595234,52.35574,4.919219,1.332434,3.65,338.399994,3.790092,2.5,1,0,0,0,0,0
306.5,-0.8801996000000001,-2.6026732000000004,12.015319600000002,-0.0316726,-0.0095904,-0.07397360000000001,-0.916692,0.068117,-0.146822,,,,,,,,1,0,0,0,0,0
307.0,-1.635255,4.996034400000001,1.7185848000000001,0.033260599999999994,0.049509199999999996,-0.0094376,-0.005239400000000038,-0.1431376,0.03892359999999999,52.35577,4.9191980000000015,1.318853,3.69,336.299988,3.790092,2.5,1,0,0,0,0,0
307.5,-0.4500299999999998,-0.1875972000000002,8.6786482,0.030573000000000003,-0.0151488,-0.1624856,0.4587376,-0.5839358,0.013247600000000005,,,,,,,,1,0,0,0,0,0
308.0,0.10917239999999992,0.13764719999999994,8.503972199999998,-0.006475000000000003,-0.0970942,0.11813779999999999,-0.3495856,-0.04128399999999997,-0.8335228000000001,52.355799,4.919176,1.4618870000000002,3.53,335.899994,3.790092,2.5,1,0,0,0,0,0
308.5,-0.16253259999999994,-0.7485948,10.254202,-0.006719499999999998,0.01634000000000001,0.12174975,0.13158499999999998,0.758853,-1.488127,,,,,,,,1,0,0,0,0,0
309.0,2.8264022000000004,-2.7885356000000003,13.9411832,-0.010781599999999995,0.2244862,-0.014080200000000018,0.37558459999999994,0.6784848000000001,-1.3978336,52.355826,4.919156,1.548095,3.07,335.5,3.790092,2.5,0,0,0,1,0,0
309.5,0.1335794,-0.3732206,8.442416600000001,0.060595800000000005,0.28138699999999994,,1.8796624,-0.2773104,0.032243799999999975,,,,,,,,0,0,0,1,0,0
310.0,-2.1298513999999997,1.5509676,8.227062400000001,0.15915620000000005,-0.040682400000000014,-0.5398976,1.6411066,-0.5572062000000001,0.7915388000000001,52.355853,4.919142,1.565398,3.02,342.899994,3.790092,2.5,0,0,0,1,0,0
310.5,0.06454660000000004,1.0296316,8.6276806,0.04672975,-0.13675325,-0.14534375,1.448288,-0.647628,1.149878,,,,,,,,0,0,0,1,0,0
311.0,-1.027717,1.2413964,9.274520999999998,0.048654,0.2097344,-0.5218773999999999,1.448288,-0.647628,1.149878,52.355879,4.919137,1.6447169999999998,2.69,351.899994,3.790092,2.5,0,0,0,1,0,0
311.5,-1.0270594000000002,-0.20715880000000006,10.5879412,0.07379019999999999,-0.07782200000000003,-0.4350452000000001,0.7958149999999999,-0.1456172,0.40904959999999996,,,,,,,,0,0,0,1,0,0
312.0,-0.8356333999999999,1.9957936000000007,10.256535000000001,-0.17790899999999998,-0.07043079999999999,-0.3651032,1.5169518,0.24605320000000006,-0.7023894000000002,52.355901,4.919146,1.7336200000000002,2.39,12.3,3.790092,2.5,0,0,0,1,0,0
312.5,,-1.5166908000000001,7.885786200000001,,-0.0683005,0.0408505,-0.964558,0.362712,0.357321,,,,,,,,0,0,0,1,0,0
313.0,-1.2728022000000003,-1.6460823999999996,11.1316504,-0.0494786,-0.11367860000000005,-0.2783328,-0.964558,0.362712,0.357321,52.355923,4.919186,0.7245189999999999,4.21,45.700001,3.790092,2.5,1,0,0,0,0,0
313.5,0.2497508000000001,1.8010776000000002,9.6884192,0.06927019999999999,0.011575599999999995,-0.011239599999999994,-0.2896882,0.04742259999999997,0.5028544,,,,,,,,1,0,0,0,0,0
314.0,1.3796418,-2.7841687999999998,11.6349804,-0.01896680000000001,-0.105035,-0.009345800000000005,-0.528647,-0.8388045999999999,0.16375320000000002,52.355943,4.919246,1.288609,4.06,62.400002,3.790092,2.5,1,0,0,0,0,0
314.5,-0.25597220000000004,1.7491533999999995,8.0186478,0.013958000000000002,0.0745844,0.07782179999999997,0.055917400000000006,0.24360639999999997,-0.4047896000000001,,,,,,,,1,0,0,0,0,0
315.0,-1.2394820000000002,-0.8776276000000001,10.5199852,-0.0211125,-0.140075,-0.01027,0.763993,0.948184,-0.657127,52.355958,4.919308,1.606414,3.84,67.099998,3.790092,2.5,1,0,0,0,0,0
315.5,1.0666604,-2.1552154000000003,10.391909199999999,0.037567,0.13780720000000002,-0.04685199999999999,0.763993,0.948184,-0.657127,,,,,,,,1,0,0,0,0,0
316.0,0.6682556000000001,4.5838108,5.547819200000001,-0.025747000000000003,0.0385138,-0.220119,0.1046654,-0.3705146,-0.48159620000000003,52.355973,4.919367,1.5656370000000002,3.86,64.5,3.790092,2.5,1,0,0,0,0,0
316.5,-0.7939986000000001,-1.9715064,10.1276218,-0.016523600000000003,-0.1880798,0.25909099999999996,-0.6848122000000001,-0.217901,0.11044239999999997,,,,,,,,1,0,0,0,0,0
317.0,-0.3404983999999999,-0.21212400000000006,11.767841800000001,0.06013025,0.1580185,-0.09189425,-0.156374,1.005608,0.89008,52.355988,4.9194260000000005,1.442401,3.97,65.800003,3.790092,2.5,1,0,0,0,0,0
