,Acceleration x (m/s^2),Acceleration y (m/s^2),Acceleration z (m/s^2),Gyroscope x (rad/s),Gyroscope y (rad/s),Gyroscope z (rad/s),Linear Acceleration x (m/s^2),Linear Acceleration y (m/s^2),Linear Acceleration z (m/s^2),labelnormal,labelturnright,labelturnleft,labelbrake,labelstop,labelaccelerate,Latitude (°),Longitude (°),Height (m),Velocity (m/s),Direction (°),Horizontal Accuracy (m),Vertical Accuracy (m),pca_1,pca_2,pca_3,pca_4,pca_5,pca_6,pca_7
0.0,-0.4956811221252645,6.986222284980592,6.228743191107215,0.00038082376365377647,0.040315240560448565,0.061851982573318975,0.06745091232755382,0.14704946756331114,-0.0174676817272156,1,0,0,0,0,0,51.272348546454175,4.898692200782648,4.234441297400857,1.6476789558675198,185.24041816100802,3.74446077703583,0.6772553096552116,0.1784004790802263,0.33275271715466836,0.174934235480935,-0.032245418995789504,-0.22526542964063576,-0.18709581457398344,0.7157580364783462
0.5,-0.25280961072115327,7.264607844701318,6.394441572126824,0.003024240147488726,0.08161050204071839,0.13171921354906158,0.058873218918564396,0.2530920434213069,-0.12300633600447547,1,0,0,0,0,0,51.9362271238947,4.933101935622181,4.277983080881524,1.66210537650369,235.25127593068504,3.774690710834405,0.6436366629751037,0.2489364512802918,-0.013467320725034378,-0.052814747017319856,-0.165764155196895,-0.21031562506816623,-0.18017350509671223,0.3770937625283272
1.0,-0.6490491736703166,7.4876194445902815,6.103040274106928,0.016621264046796664,-0.08196186354738076,-0.1135249851919913,0.34409631445449684,0.1338395209387733,0.036103342879550776,1,0,0,0,0,0,52.20009657888026,4.946246686060367,4.292570032934601,1.6674729244354618,259.5413242675529,3.7853404900396095,1.0510659202853716,0.2908009046091762,-0.10097695172198762,0.2585939506847417,-0.15723140544878864,-0.18240918885531374,0.07827761929319826,0.07984935581509182
1.5,-0.1712729270893008,7.587526377535808,6.497583599829253,-0.021852435905259645,0.14682517366345432,0.2773283536401574,0.06904279937458457,-0.07755661761777333,0.24457616501463447,1,0,0,0,0,0,52.291958199241904,4.95070646835512,4.296794527459637,1.6691996651468006,268.0257125142376,3.7886390898627815,1.6071959667969167,0.2786574584718635,-0.06887854221073851,-0.32396828602513156,-0.10340085101377701,0.07664052866091245,0.12485658435872979,0.19468161397682054
2.0,0.36988251872595607,7.1158997801197295,7.321931001897833,0.029809767475781377,-0.057417104321394574,-0.14408077720678514,0.06778492720126428,-0.1873177327447753,0.3973857796701833,1,0,0,0,0,0,52.32341502630964,4.952204366780131,4.2980028590088235,1.6697467837291564,270.872543129175,3.7896480983854777,2.2100981627508602,0.33977299406572875,-0.028255079641193157,0.12926448840686766,0.08164338205072459,0.2988449909887115,0.03456615972060914,-0.09458971710955562
2.5,-0.06516246637501477,7.114246776733718,7.161190447847381,-0.017970326335036476,-0.007045601941973782,-0.02366256602453487,0.05509848064353142,-0.2749103123261224,0.37285748750516895,1,0,0,0,0,0,52.33417355091304,4.952689297196801,4.384397821054259,1.5673674578212209,278.08531607179685,3.789956383033021,2.4058759831346084,0.3025046051970294,0.007931828532199441,-0.05547616271963233,0.08884728868917532,0.2180267521045732,0.14415160296580706,-0.036293361097857614
3.0,-0.08368851915798117,6.785988566035366,7.211136163310018,0.02940036012861801,-0.05595042583952472,-0.1890376471528234,0.49183252293502994,-0.33882383564693064,0.5610241392472618,1,0,0,0,0,0,52.33785225266646,4.952839552111255,4.414895481301368,2.068258256229539,276.96260829183575,3.790050563647578,2.4694405763862726,0.33320628932148766,-0.012952213200715107,0.2444320998664504,0.23139743522371772,0.32947605752481934,0.1729635061247488,-0.13828096466819764
3.5,-0.10662474415433491,6.983047654754145,7.171704054284164,0.00371263045439358,-0.08612137360313125,0.01171697969482069,0.03833892626565516,-0.21364527319797116,0.31953532429377063,1,0,0,0,0,0,52.33911009215246,4.952877892628521,4.429422394906697,2.7599725177511987,273.0571215425618,3.7900793354265145,2.4900782253105307,0.2935036126376982,-0.0848198518599099,0.01163110772546538,0.10318746542168085,0.18250839465889412,0.11354640234645397,-0.08061894986044107
4.0,-0.8600918810888797,7.463617347535688,7.593680053629321,-0.020956911277161157,0.055413319425884,0.24157690531769158,-0.2846115916504144,-0.37471010387201176,0.19141777922253603,1,0,0,0,0,0,52.339540177411045,4.952875102521962,4.406032447670528,3.0197923150387203,271.9198930336422,3.790088125074782,2.4967786826677556,0.25552824102331195,-0.08249131823654074,-0.34130011557705187,0.12781442096850584,0.06408576538037503,0.2645207939150012,0.10375428463249182
4.5,-0.08854576985591,7.7783395731095535,6.895735997641553,0.009253607415400055,0.06635278476372734,-2.4967551587012915e-05,-0.1700046055296776,-0.16558845821831952,0.45191395060155415,1,0,0,0,0,0,52.339687233745664,4.9528582800972565,4.371809170611119,3.1429979411105253,271.70679406090096,3.7900908102723143,2.498954130128326,0.27299336827869425,-0.12826329146253598,-0.13692116575709554,-0.0463950968591547,0.23773621919339347,0.21370560460748086,-0.007390396712917872
5.0,-0.1950223709533822,7.149085246255183,6.740724684881986,0.02152215033294693,-0.027224846346832476,-0.07776737171953203,0.05464613774342991,-0.10696204125168642,0.232985775499639,1,0,0,0,0,0,52.33973751578679,4.952841546408176,4.332233866321706,3.2571749848987057,271.813297698603,3.7900916305879297,2.4996604358794334,0.271203127441807,-0.14178665955364508,0.04869743494064363,-0.005004914800669183,0.12249688767303454,0.09958726158058971,-0.06873939487865563
5.5,-0.4298837417568152,6.868911504043053,6.784029511208622,0.0016927231696387199,0.022728635257787858,0.03564952799078293,-0.035295832335061506,-0.1455953475397836,0.29161153662617517,1,0,0,0,0,0,52.339754708406566,4.952824524464856,4.291129079162332,3.368496330781886,272.02649437923066,3.7900918811906137,2.499889753213968,0.25741087326963147,-0.13199914676255617,-0.10110111658792645,0.08708540470291928,0.09896982094158148,0.1300371511859627,0.004592083756249796
6.0,-0.6051065760726774,6.924898453775575,7.3815351467730155,0.014725366564513795,0.04840317387904206,-0.012731254173253784,0.2298664010106154,-0.1066418222601428,0.37571999682691076,1,0,0,0,0,0,52.33976058697013,4.952807406406903,4.249587639886237,3.478914218366249,272.2753084326347,3.790091957748592,2.4999642060126672,0.2620472228373311,-0.13253463702516188,-0.004465732548856644,0.16204326535502822,0.10574517718709937,0.10160394080432032,0.00022228200761384274
6.5,-0.29004608618675254,6.888910095121794,7.229762349964092,0.010740198976133045,-0.02771969890001915,-0.06863952585532812,0.1780030648932256,-0.20882194742676868,0.3271343906702427,1,0,0,0,0,0,52.33976510735212,4.952766418150949,4.0356273695378455,3.657415095689167,271.0926517844656,3.7900919811367055,2.49998837871311,0.26346958185490627,-0.15833963992680378,0.0554300964924859,0.13765777526563724,0.1823343723423191,0.1046625581966481,-0.0648474692633531
7.0,-0.7668583547900218,6.551839876776502,7.895563264975963,-0.006505363826810662,-0.045430825472533194,0.046699416033751745,-0.03465909790001978,-0.17730308917569293,0.30275405162649266,1,0,0,0,0,0,52.3397641426157,4.952734634155206,3.9722172520595955,3.7514801140661085,270.4980023639672,3.7900919882816675,2.4999962268995706,0.24860419797881755,-0.14451389546302315,-0.052564134037574956,0.289485636406293,0.056722045884087316,0.07659179000794515,0.0004911880605261594
7.5,-1.1310387837399676,7.350741113061995,7.43245804043475,0.005152056807833722,0.04516584489428576,0.06517930834815337,-0.10452114451213435,-0.10582481903220578,0.2957103101596337,1,0,0,0,0,0,52.33976381274949,4.952705601358552,3.9518212287195738,3.8188367824276597,270.0996272553216,3.790091990464421,2.4999987749818944,0.2276241682143396,-0.16468905502386438,-0.11643022002072945,0.1177331744167563,-0.02416262148802177,0.21439436095780978,0.07784390348648039
8.0,-0.15512503295994773,6.849549295668455,7.023662400354667,0.012706404059189113,0.030750142296102165,-0.01673547815476556,0.1371077459768225,-0.16621554075875897,0.31953743007684415,1,0,0,0,0,0,52.33976369996043,4.952677168071523,3.845208281313801,3.826468873407946,269.6668734073204,3.7900919911312423,2.499999602271557,0.24941559036179636,-0.17924638875328552,-0.02905959662619488,0.10178495509002701,0.20039693544914242,0.07046206713555349,-0.019571616724332674
8.5,-0.9034203623884628,7.347155714075817,6.029672633032599,0.010162738652410094,0.007794959174997486,-0.0015409963689888683,0.015406931611146188,-0.1551100375494605,0.27017079207744105,1,0,0,0,0,0,52.339763661395175,4.952648934683196,3.713962061756711,3.815209284931065,269.22262256382913,3.790091991334953,2.4999998708689173,0.22579176021149566,-0.1888257570669878,-0.019019521871173166,-0.035407140429181354,0.01750544721699476,0.3166802692060665,0.0414768957409681
9.0,-0.03175897025729513,6.831406875341094,6.5450869782266885,-0.0010066624812831906,0.0002383303907456634,0.044569035743686376,-0.07039436893878623,-0.18195115833541892,0.2642525135149564,1,0,0,0,0,0,52.3397636482088,4.952627442630447,3.666413130381116,3.82987935446749,268.63021181950273,3.790091991397186,2.4999999580748202,0.23703001925368875,-0.1909887847663996,-0.10890302029804794,0.03543256930591702,0.19189208403591224,0.09823865477969632,-0.004595565938268149
9.5,-0.47569637621629807,6.90053231883693,6.705199675030894,0.009266883930550389,0.013735776122305449,0.0024003661782670757,0.12918521753722703,-0.08013495091796254,0.21393351355379386,1,0,0,0,0,0,52.339763643700074,4.952607880546538,3.6427775791271513,3.8527513202600288,267.9883204779922,3.790091991416198,2.4999999863880897,0.2329860437253223,-0.19288231462000466,-0.014522434125010895,0.038598190938611894,0.06942598387211564,0.09280623868531922,0.019187260464128587
10.0,0.04848657241936877,7.083146191719258,6.4726812918345535,-0.000588483712601149,0.012089812701121689,0.023876317313212783,0.013762191100567048,-0.02858991906269074,0.19583305013485608,1,0,0,0,0,0,52.339761131796436,4.952589279827685,3.6259742145266793,3.878217818104988,267.329931342711,3.7900919914220057,2.499999995580601,0.2298884378987476,-0.21553419727736353,-0.07831448188750831,-0.08323678447222838,0.14012346911963688,0.033109618433846126,-0.002679559348252217
10.5,0.05016661528703531,7.541233605421543,6.329030269647503,0.00010873793488141038,0.016402901264074652,0.10719970492609442,-0.17433805753744785,-0.07224485472248612,0.1961151233240909,1,0,0,0,0,0,52.33976027291713,4.952564960665574,3.6888216339001016,3.8281598168916737,266.4439714074381,3.79009199142378,2.4999999985651473,0.2285349098945162,-0.21555197416348934,-0.17225986896672868,-0.16173719390945535,0.1516661928005726,0.12227572912164353,0.02553824828168361
11.0,0.08860526392500062,6.739195517773879,7.098803834997088,0.013082685743405008,0.11539729825616524,0.13821675712785744,-0.2692655046840793,0.031164787690370926,0.14349750756224855,1,0,0,0,0,0,52.33975746888398,4.952539052604789,3.774426295659003,3.754212410513315,265.4820414388865,3.790091991424322,2.499999999534144,0.23337967691409475,-0.1880686480241399,-0.2767486936218376,0.02522839071156595,0.12152739988487207,-0.11111554213942408,0.08784257976530421
11.5,-0.9109360604590071,7.268564764402447,6.670397427376767,0.022230916175025206,0.09823307614792925,0.06373448065746276,-0.2103022532147827,-0.002222383703161572,0.1541681751133831,1,0,0,0,0,0,52.33975148939469,4.952495133436494,3.8909755470126073,3.7855167428772045,261.76345062105094,3.7900919914244877,2.49999999984875,0.24348208218574144,-0.1823092095102986,-0.15612279644667437,-0.014583093709577945,-0.05691443506056651,0.14772628674032345,0.13400971935566025
12.0,0.21465085384430105,6.77575265182864,7.239669739944239,0.010799609683131048,0.08850010747807319,-0.047259521321503545,0.27113306461920583,-0.05091370352974458,0.22747171246898612,1,0,0,0,0,0,52.33974693450381,4.952462690008075,3.9171752004720135,3.8090924407562685,259.18973289615747,3.7900919914245383,2.4999999999508935,0.2885602450675328,-0.18942467763156393,-0.03157294204123207,0.04202221791617695,0.222246223965428,-0.10722911987533011,0.01088837604114429
12.5,-0.42032527713767676,6.91540621911416,6.956520492197211,0.00946508954223884,-0.012229654639271198,-0.056136615365082625,0.3094334518742048,0.005070175957998038,0.17331304839750022,1,0,0,0,0,0,52.339742866716826,4.952434390858149,3.9175608242869324,3.8302234685894168,256.9982085237234,3.790091991424554,2.4999999999840563,0.2889600783361111,-0.1926023266618674,0.09199252432168259,0.015877080371959246,0.0436831775980413,0.009028404930982538,0.01266665718326675
13.0,-0.5036690870426007,7.06673283515356,7.411203348222887,4.7495014076515824e-05,-0.04772704300581906,-0.017158589597287555,0.21935762790900554,-0.006538023270203714,0.10987248383101228,1,0,0,0,0,0,52.3397389654822,4.952412876878047,3.975062566636284,3.8255127270885914,255.97793703324547,3.7900919914245583,2.4999999999948237,0.29053171404604317,-0.18995264569394496,0.06481616383372316,0.025986391917245548,0.0074599828723643,-0.003552475220964458,0.013348757086153459
13.5,-0.2938563072499426,7.081585334301725,7.226091252975882,0.0017707623270562045,0.031726176099162263,0.05737077437318999,-0.008928190398735852,-0.020644379531342183,0.14598546651764374,1,0,0,0,0,0,52.33973512119576,4.952393943166744,4.048883110744471,3.8126278896917496,255.34867543361176,3.7900919914245597,2.4999999999983196,0.28822581856618346,-0.18643949548325217,-0.10074308445446335,0.006267001220776166,0.06428307541261863,-0.007069614839089017,0.06494003349775672
14.0,-0.6851840516053215,7.277958988620636,6.85368984861605,-0.006224438582269932,-0.0011163791368556594,0.02898990408736367,-0.12183333124030106,-0.02013262686112734,0.08407433102613243,1,0,0,0,0,0,52.33973129638126,4.952375869812577,4.12736614414075,3.79715747687034,254.84993462652565,3.79009199142456,2.499999999999454,0.28287585168276963,-0.18745278572373011,-0.08199908237144896,-0.05065992696215552,-0.048263133161816046,0.09731338537611219,0.0755990610549931
14.5,-0.8790778300192559,7.669787671197067,6.499954129099618,0.011654635111191799,0.03693816134574377,-0.0014441140300857948,0.10874473245560716,0.0734613266323529,0.10412769770156954,1,0,0,0,0,0,52.33972747822467,4.952352362177369,4.174296844688065,3.8435405126781155,254.88328259431023,3.7900919914245605,2.499999999999823,0.2795300749101864,-0.20164455089772798,-0.0026753036419068284,-0.15380884184415827,-0.09459443532173765,0.15285191422332006,0.08907957964558552
15.0,-0.6930317117669123,7.400617352810224,6.481135166573563,0.001083615833084202,-0.004436415663964133,0.024382112244856164,-0.1702459655419437,0.04954069637417946,-0.015930301406303096,1,0,0,0,0,0,52.339723662344575,4.952326724709695,4.212212642297244,3.9094886182789086,255.0942680937102,3.7900919914245605,2.4999999999999423,0.27166912104806074,-0.2082607002592176,-0.07761019493290341,-0.14501023241197386,-0.10874056212924467,0.0918428318468135,0.07224245437159041
15.5,-0.523891945113227,7.633642635714839,6.498028252060185,0.011627790289471487,0.014550120487574807,-0.02277357106909274,0.05497444699584203,0.033067977722668354,0.11609955012593824,1,0,0,0,0,0,52.33971482651888,4.952281624399171,4.397486706088975,4.0192282290435815,254.8982376452588,3.7900919914245605,2.4999999999999813,0.28941001289140794,-0.21462366762912993,-0.00353502590025171,-0.16258926945694643,-0.013165899030712191,0.11986958515067193,0.03557610986976144
16.0,-0.5408673831583022,7.351340145743266,6.915175810865829,0.0038414676435755976,0.024914132819322324,0.018749830504988674,-0.14763743928473239,0.11004194186390896,0.07816858022061601,1,0,0,0,0,0,52.33970929497898,4.952254190448167,4.423424306207709,4.063056143528121,254.27765872706232,3.7900919914245605,2.499999999999994,0.282983437550528,-0.2117612946981682,-0.09001621603285344,-0.09733437604952005,-0.0628489708870178,0.018941706412349428,0.06340704416022894
16.5,0.010664982297300063,6.800216677084448,7.3204255081491585,0.011190641035303064,0.006612959246195024,0.05048833733620639,0.09008912877504571,0.06559330191736945,0.12978766661745023,1,0,0,0,0,0,52.339704893252595,4.952232964957417,4.403837451402812,4.086035310424988,253.51534249186273,3.7900919914245605,2.499999999999998,0.30517639387866025,-0.2048201451273797,-0.051275457238772824,0.020302359885948036,0.08634126497836032,-0.1306258336912422,0.01491803092081551
17.0,-0.2122694615062867,7.369946370466618,6.78202766219701,0.0075815512037997815,0.07674824710507426,0.0981117794947382,-0.38647622504197293,-0.05524422026612576,0.1555226062299001,1,0,0,0,0,0,52.33970087783618,4.952213809597144,4.371243340015756,4.102419740719611,252.70572020753107,3.7900919914245605,2.499999999999999,0.28964559248001276,-0.207007997026947,-0.2468977448958871,-0.07259541850664615,0.08632986713674873,0.07105731660591842,0.09517425413811004
17.5,-0.5023888748803669,7.123293720734681,7.530331060735936,0.015882760282589153,0.042453989202342966,0.05832102397064472,-0.084669613960687,-0.007621903236917027,0.14688570606813506,1,0,0,0,0,0,52.33969448414629,4.952189305497052,4.388834680213201,4.093928633763684,251.4694997390916,3.7900919914245605,2.4999999999999996,0.30523830703223276,-0.1928251876803166,-0.10297060979489159,0.05446796407632204,0.026345760232622216,-0.004857684743714591,0.07864986212854932
18.0,0.1667415497359156,6.893493808064215,7.920739507375747,0.017733680437469392,0.10365776764031742,0.04299675517163914,-0.07347840234986627,-0.03933275047171833,0.1964995164830984,1,0,0,0,0,0,52.33968978763041,4.9521630179291,4.420764301843667,4.077569062991558,250.09085769684475,3.7900919914245605,2.5,0.3239331623602669,-0.1903576722696557,-0.16433414746666627,0.09545304986923633,0.19946242381785326,-0.15341769764850866,0.05922121015269588
18.5,0.3935517843632484,6.771085707463058,7.83615759822562,0.0002446616022358135,-0.0032605811435826443,0.015538389587217125,-0.01785294605905876,-0.056636294936590906,0.178887440789976,1,0,0,0,0,0,52.33967814033251,4.952118972219067,4.58479299968176,4.010862407447971,247.36565233931165,3.7900919914245605,2.5,0.35005547430617917,-0.18837132925167388,-0.0799006632256963,0.07895176570708466,0.219161470265993,-0.17506926856241656,-0.010143271957034471
19.0,0.9718737636284498,7.223230485756396,7.684833198256271,0.0077314600464992635,0.04341777979678587,0.005887858305495743,0.4378502893347045,0.014451336335385673,0.2259463854074857,1,0,0,0,0,0,52.33966913712173,4.9520877579649385,4.645830398148137,3.958996250969346,245.35672025532483,3.7900919914245605,2.5,0.3700224378527007,-0.20722461029824205,-0.007985110173974413,-0.08068325082893953,0.3499749020924205,-0.2396959873919679,-0.0419949198301391
19.5,-0.07898597145608965,7.353068961859259,7.50948553258035,0.004127553341612687,-0.015904064119183513,0.004705294509905196,0.08834941185661038,0.056198311284634525,0.0861358499036273,1,0,0,0,0,0,52.339661037986914,4.952060504351218,4.677441531417672,3.911824505048897,243.58689174343868,3.7900919914245605,2.5,0.3549224715862098,-0.1950852823252905,-0.006118285592099243,-0.07047051048877732,0.060761122554554084,-0.08496749968052822,0.02547005060601979
20.0,0.3096923970429511,7.356851024840623,7.545312558238039,-0.010905079496136371,0.043496668638521745,0.09831117695965384,0.169617365979632,0.057106399061477034,0.02613004388827575,1,0,0,0,0,0,52.33965073761507,4.952035842729619,4.781516965279276,3.8593006404587142,242.16335722429721,3.7900919914245605,2.5,0.3589996501468745,-0.19543524779191296,-0.12891708848011377,-0.1252856875480362,0.12109401426261089,-0.17377104071731334,0.052793029283552444
20.5,0.005419570743319779,6.74477528465154,7.640496618535189,0.0016283719062606637,0.09694394125610506,0.053360687530780944,-0.05103355521589101,0.06339791290026008,0.05857680717123795,1,0,0,0,0,0,52.33964219495018,4.952012045374146,4.906296712388609,3.805083829434104,240.85542614001636,3.7900919914245605,2.5,0.36924603612626833,-0.16589343682526927,-0.170539459672011,0.03649549117755238,0.06624792903027175,-0.20401376459796103,0.10073082897602667
21.0,-0.7008911787135631,7.053151538741146,6.807607806189741,0.00835598140719988,-0.008608519441665713,-0.0612016277347771,0.27457267262794416,0.06423701045113933,0.0686823686655359,1,0,0,0,0,0,52.3396342532869,4.951993939510953,4.942211156528664,3.815281770900605,239.9524823438139,3.7900919914245605,2.5,0.37768196543854987,-0.1719294290190412,0.09542952117072458,-0.04261256274107503,-0.07989466731050354,0.01731196733812865,0.06114311595394546
21.5,-0.2562793784557039,7.3814391723736295,6.412743031476385,-0.00044497611012499563,0.03537314160958635,0.04959579210212383,0.14019972812238204,-0.044110191246609046,0.16242735941616887,1,0,0,0,0,0,52.339629027482296,4.951977413559983,4.952735993567816,3.8458549566925115,239.18473558411125,3.7900919914245605,2.5,0.3791401532168054,-0.1794486365686036,-0.06523641765082762,-0.12807756161065947,0.07037625394298509,0.09078014610587753,0.08281478467111937
22.0,-0.40341549436233626,7.218842975638884,6.782150527735981,0.004963272826674275,-0.015618223631653043,-0.0030611138112087155,0.06113724640585656,0.06683545321372601,0.07892630314957813,1,0,0,0,0,0,52.33962221993204,4.951961732252231,4.9560066968239695,3.882873266700556,238.4621216945415,3.7900919914245605,2.5,0.37810114882969353,-0.18476051066319413,0.0067754548267601605,-0.09437899625128696,-0.02678419301216926,0.004759767541155004,0.06192108018727967
22.5,0.31446286941716484,7.017065660126183,7.1814483990521705,-0.0015167015849707728,0.012181581481450265,0.04039300822607222,0.22066680394808946,0.0768720858072715,0.08039219448264917,1,0,0,0,0,0,52.339614871545514,4.9519412471078335,4.989488791588157,3.8774904191424944,237.72126400858548,3.7900919914245605,2.5,0.391204438513887,-0.18926029825732493,-0.03986293957788139,-0.08893811246797066,0.1214221744383261,-0.1733183853262461,0.03150743908791517
23.0,-0.3150311421990716,7.0835090723001635,7.122746603542425,-0.0022356486710932493,0.06923975272582591,0.022792966245111415,-0.039655721721482184,0.15219569685015183,-0.016745340794036417,1,0,0,0,0,0,52.33960482787227,4.951919160186466,5.03160266528846,3.8586955205917874,236.97431599022016,3.7900919914245605,2.5,0.37378079778160883,-0.18266069364287468,-0.11393309896811091,-0.09340848700961947,-0.06127526090108106,-0.12770057277550306,0.11509369492185587
23.5,-0.5608218131418469,7.477849878442414,6.225561206130728,0.008388403093173014,-0.013533553512518476,-0.0078014914270585385,0.1736615576663065,0.06015726231197205,0.10090481005865413,1,0,0,0,0,0,52.33958884189273,4.951883189809459,5.005101499172082,3.804892421958984,235.25938066815417,3.7900919914245605,2.5,0.3918849933091791,-0.18341715271653422,0.04936083352364535,-0.17682822611421944,-0.04920546223145688,0.10897559673019744,0.08138293964979212
24.0,-0.15254717428321962,6.7345554630831455,7.257371769145687,0.007276539501851441,0.07322938269067557,0.030344106047774492,0.10453330233286956,-0.041626922397181534,0.09425889980580344,1,0,0,0,0,0,52.339578355184024,4.9518616606942505,4.9911953239294515,3.7833158782719125,234.2871875503308,3.7900919914245605,2.5,0.4062100830440631,-0.1553438912930787,-0.08940666408261624,0.04772239451681257,0.08365014534938159,-0.10025882607285443,0.10746017475172305
24.5,-0.874452647430333,7.243156090831456,6.209417692824852,0.0038332490969982323,0.012395413828564406,0.011517681993279856,0.17916809804151318,0.028527327055744123,0.12027598671305467,1,0,0,0,0,0,52.33956974880616,4.951845264672323,4.980888038425374,3.7719330232259027,233.5629341362468,3.7900919914245605,2.5,0.3958179866917581,-0.16630025733759843,0.0217238447576919,-0.09989914633473924,-0.09517362065158202,0.14441048479792348,0.12989813918892407
25.0,-0.6082012983963448,6.706468934623304,7.567628813584349,0.0007914255438195442,0.04667585116360726,0.029124921545226612,0.2172341121020249,-0.04432672459544244,0.08384527388154862,1,0,0,0,0,0,52.33956178535791,4.951830580213716,4.9716086609098875,3.763774567694079,232.92146067806667,3.7900919914245605,2.5,0.4103134784238272,-0.14268023616583553,-0.033768800512976545,0.11426353802598725,-0.007087674302063615,-0.06303120440743609,0.12722727820532367
25.5,-1.0428009430424872,7.496614657529117,6.37084879493958,-0.0003869656824282922,-0.031490070730562494,-0.03101594950435839,0.222318869293762,0.14853287838288393,0.018850347478436988,1,0,0,0,0,0,52.3395540417425,4.951812016665715,4.981799358651597,3.774867660051251,232.14106909454398,3.7900919914245605,2.5,0.39299886550658925,-0.18061188768503095,0.09988267351295893,-0.17560573798260826,-0.20255598494297095,0.11177474135763744,0.11610104855951224
26.0,-0.2451032668598262,7.231044965702686,6.9744165608752935,0.004163441006342352,-0.026353871879982747,-0.04475709952749125,0.5661469302715665,0.06961506970297306,0.1273407254407931,1,0,0,0,0,0,52.33954386293116,4.95179215968571,4.997552564015102,3.7920502734685977,231.31430242860444,3.7900919914245605,2.5,0.42480503438626716,-0.1778079113857162,0.1573460980053561,-0.09486122613743188,0.03804589258064156,-0.04229851447375402,0.041452446085994264
26.5,-1.2206870945224577,7.444855298302451,6.733116787273022,-0.002220989875062164,0.06440668996891491,0.10228491530873024,0.12163286803239132,-0.014115822758864083,0.1429251298236358,1,0,0,0,0,0,52.3395253203827,4.951758839905689,5.111572972109458,3.7906485027306194,231.03830264687747,3.7900919914245605,2.5,0.4015937691442431,-0.14897518959764025,-0.08564033006628595,-0.03929404041105582,-0.13159034367670105,0.1900361633276868,0.20328288250767895
27.0,-0.38183960320186683,7.747470337825924,6.0694729599585795,0.0024729161533761966,0.007457009424210077,0.03352989116606582,0.02678812876553255,0.020509016726171884,0.04538092090423988,1,0,0,0,0,0,52.339513959522584,4.951738194597637,5.127047229505819,3.824389405287736,230.87955468216117,3.7900919914245605,2.5,0.4041534179329422,-0.19031277400451665,-0.04180474133709527,-0.26069637438475646,-0.02007836454910652,0.12587623141852214,0.10543998354947835
27.5,-0.8012951790796201,7.452202552646555,6.466963542731057,0.008414269762661575,-0.03796060664130425,-0.05520627153465589,0.3223103193795942,0.054298688173902376,0.15311079367055963,1,0,0,0,0,0,52.33950505425166,4.9517220932697334,5.1143652572374485,3.8692465665710074,230.75993876424744,3.7900919914245605,2.5,0.41797275874656364,-0.1767939353081123,0.14341027131511674,-0.11866966938454983,-0.07335236849806653,0.13274841239917706,0.07769529196982558
28.0,-0.2795339911024316,7.398769885767143,6.707528615916108,0.00108005949446811,0.03921144531076235,0.10526763943584665,-0.2343181695245996,0.14967491455220172,0.04797520765398959,1,0,0,0,0,0,52.3394969886048,4.951707507073024,5.093638691919605,3.9176197855729535,230.65339647503336,3.7900919914245605,2.5,0.3926600461979317,-0.19117191706147688,-0.16637251647091736,-0.1692364183273696,-0.04593936099794446,-0.03029792505563457,0.14429132463526842
28.5,-0.05689524863478129,7.220180065698176,7.328424310070304,0.005955717757693745,0.033897919650885434,-0.013009520842371516,0.14106248309852504,-0.04457109121354372,0.15198148927339528,1,0,0,0,0,0,52.339479168597286,4.951674355557285,5.2337250463596225,3.926084018892529,229.75180681308905,3.7900919914245605,2.5,0.4329932123345589,-0.17093188038465448,-0.023324419290810222,-0.028927928981589662,0.12252157569639215,-0.049120125584586644,0.06916372879281059
29.0,0.3671532782816393,7.350725982497814,6.761049402213558,0.007807065815967138,-0.008452664594626132,-0.09294533164394075,0.11150950701134518,-0.061735266871032625,0.19228265771243985,1,0,0,0,0,0,52.33946805479102,4.951654719880767,5.260875209316315,3.90825078786,229.16215464146404,3.7900919914245605,2.5,0.445287298030622,-0.18611854659342464,0.04231550533246635,-0.13102936302835838,0.21332792053272592,-0.025706602194067625,0.002730963489069178
29.5,0.516066318133952,6.690551894678767,8.122278558569052,-0.007748982896079235,0.024571017849645084,0.09692307614762058,-0.023441423510539183,-0.037934400538263115,0.16754445110406269,1,0,0,0,0,0,52.33945923399366,4.95163927304339,5.25575806546883,3.8820991555229925,228.67663666245642,3.7900919914245605,2.5,0.44394576401915614,-0.1569722028326885,-0.1560840752492508,0.09708625286780441,0.22816274279141663,-0.25054462038125846,0.062180251070414874
30.0,0.3439816387510923,7.178687986992145,6.99774519574458,0.006995404515343416,0.07364100253936863,-0.03454208430683517,0.10151287894648889,-0.17412298786554053,0.300623501758153,1,0,0,0,0,0,52.339451197230304,4.951625222920049,5.241421400928809,3.8533164650419374,228.2258818344281,3.7900919914245605,2.5,0.4543068591348011,-0.1604929239800587,-0.0662417729979674,-0.0199571574227029,0.29387786696212104,-0.0011002304997540235,0.060439573891150865
30.5,-0.05480909948334883,7.139784879807187,6.909025156270612,-0.005878553367599397,-0.03407711694604226,0.07135606192574949,-0.18212989326130272,-0.06505992599875624,0.07330336258410872,1,0,0,0,0,0,52.339433387098744,4.951595110728993,5.221896792859099,3.8031909550305305,227.27600462390498,3.7900919914245605,2.5,0.4336618560138777,-0.1650372004422763,-0.10581484934099587,-0.06676622057572022,0.07178088638793706,-0.008056997598413823,0.08589500782810267
31.0,0.3232443917116181,7.173296363083024,7.4601684082988875,0.007823196326156856,0.031028496937549985,-0.03952999914600519,0.600730987416294,-0.12247027735739295,0.25836426657090134,1,0,0,0,0,0,52.339422276669296,4.951576806317836,5.209286362844924,3.76682500766883,227.00331744377564,3.7900919914245605,2.5,0.4695037554144286,-0.15605594663216213,0.09113787831807715,-0.004585755825744834,0.2760181753363037,-0.07937036334506027,0.027735687387187274
31.5,-0.407164533174902,7.548805275621375,7.106688899684425,0.016690780565293085,-0.05158190381037474,-0.07887882573521196,0.2156393796063455,0.1448918632041648,0.01536534289694641,1,0,0,0,0,0,52.33941345702655,4.951562439057606,5.198651401470929,3.7348113932736684,226.9566968290707,3.7900919914245605,2.5,0.43633092320532174,-0.1782674955906817,0.1465596815128273,-0.1584543005615302,-0.06069747837524966,-0.043878456807582664,0.05454886675544267
32.0,-0.12832936556218583,7.300335998984479,6.854761589859798,0.0024802266586768477,-0.02802155440903721,0.023050097589499233,0.34162465246283724,0.18897385792005522,-0.04067220692165022,1,0,0,0,0,0,52.33940542065799,4.951549384589247,5.188581197220215,3.7041744797761926,226.98554408853556,3.7900919914245605,2.5,0.42978994479256427,-0.18158019969966033,0.0672427010114379,-0.19539828252517696,-0.04651912959020704,-0.127465861363262,0.07537804995007484
32.5,0.6692769051166734,7.422966046738568,6.379906784460502,0.007948824261748304,0.017442711824549643,-0.03960558530749926,0.13913182031292456,-0.1464424527498166,0.1694540347393019,1,0,0,0,0,0,52.33938761066142,4.951519922228418,5.347410063786676,3.714994196691188,227.52811195438338,3.7900919914245605,2.5,0.4594851705335687,-0.17279235128964818,-0.018839039024106025,-0.19108555902080393,0.2934617042404569,-0.006115683939146617,0.013717279925318925
33.0,0.12146548522269585,7.707687995467205,5.791786944670046,-0.00820507656430516,-0.06970772367030992,-0.02777395254582287,0.19517625073328101,0.09040702861625527,-0.0026013860372705033,1,0,0,0,0,0,52.33937650027813,4.951497066864749,5.437478767990882,3.70816124539172,228.30878620422098,3.7900919914245605,2.5,0.4336618787427467,-0.19477250719606679,0.06770704124450838,-0.36385305156132436,0.019808891260527157,0.03398775550591143,0.017830714021284784
33.5,-0.08124112191072755,7.364848637180405,6.294890424038482,0.0004953595421472896,-0.006543759746368366,0.027297115017280653,0.25278250019856485,-0.030756942160830997,0.11841442129258348,1,0,0,0,0,0,52.33936517028917,4.951476414518517,5.5079018189664195,3.695744682976495,229.16895774967102,3.7900919914245605,2.5,0.44308682598595484,-0.15981690740156693,0.0071508951295479895,-0.16856770867064427,0.07507998257841436,0.05312537313616022,0.0618683962428289
34.0,0.0004536384689823314,7.40360540077194,6.70140859406266,0.004966813673439461,-0.06381532449858207,-0.044817491800817004,-0.0741447292898586,0.08949205478814148,0.025992679756484255,1,0,0,0,0,0,52.33935376521183,4.951456496739851,5.541017443412382,3.6644697178227568,229.85580480131497,3.7900919914245605,2.5,0.4366132796976487,-0.16837343093611024,0.030640180797781316,-0.1874806533850334,0.009705508142451033,-0.046247657513601936,0.021050731666673577
34.5,0.22612583503518005,7.43465049573154,6.888412615573352,-0.007639335106950381,-0.0519853172313883,-0.031573191552891934,0.2363876733929824,0.1829453495611339,-0.10219832488594413,1,0,0,0,0,0,52.33934233446,4.951436823893205,5.563473520834363,3.627229425653688,230.48480104644588,3.7900919914245605,2.5,0.4311908267000025,-0.17958743068783936,0.058163920488194784,-0.2633513851183251,-0.009667072596282375,-0.17715465464103528,0.0055039522686471465
35.0,0.15857054916715743,7.51687455913131,6.844882930231041,0.005206099842202237,0.12709609344416953,0.17152875129841647,-0.0829181243635333,0.06112467028272402,0.09482706687352677,1,0,0,0,0,0,52.33933340529145,4.951421364661932,5.580180698046176,3.622286685400597,230.87242160205474,3.7900919914245605,2.5,0.4216441351981549,-0.1522036302347121,-0.2616605340347869,-0.17860110046752728,0.09652686011606278,-0.06648062958463966,0.15143341782607875
35.5,-0.14842793356317371,7.255661968438782,6.790426065998906,0.011707274849307904,-0.02361361847803417,-0.05777155262262201,0.08076492873793678,-0.02020264970292336,0.05053283326061501,1,0,0,0,0,0,52.33932784183542,4.951407310406006,5.595245000725449,3.627560254079661,231.17947379862017,3.7900919914245605,2.5,0.4416575679384121,-0.14821482276226186,0.043692029934181795,-0.10495664453461132,0.03952617814567524,-0.009913634447272347,0.032206251446638655
36.0,0.31408239380011316,7.235500052409319,6.753546727541535,-0.003924185350207219,0.008370697685022528,-0.04860056050077177,0.44239695997957756,0.08724719686744478,0.05689174336935335,1,0,0,0,0,0,52.339320918834154,4.951393724620873,5.609839913248336,3.636065214368718,231.45961966905725,3.7900919914245605,2.5,0.4428296355997213,-0.1642827346884244,0.06381537270025911,-0.18804552965986962,0.10201414640469679,-0.13741631802447674,0.008758428682644558
36.5,0.8906278800473366,7.21769813963401,6.697436852105944,-0.004138154269047176,-0.04163702200449039,-0.08339888101504903,0.102951734468269,0.11213947267241162,0.009668804731013753,1,0,0,0,0,0,52.3393110206102,4.951375209569281,5.637206340951447,3.645592306871568,231.9195260463283,3.7900919914245605,2.5,0.44240025828650686,-0.1812415344338683,0.02798580155799147,-0.2508486039405041,0.1742251444550547,-0.22532850487611522,-0.053459144094016225
37.0,1.1643493057837095,7.209922482519631,6.668928597469006,0.00665463056641047,-0.05691780420031059,-0.045932430170395805,0.29949205255578265,0.13032888359673148,-0.02488060359833643,1,0,0,0,0,0,52.3393026154492,4.951355050917776,5.6682217530346914,3.6554427134101544,232.43945209629453,3.7900919914245605,2.5,0.44593279841479766,-0.18873664248174293,0.06812553778191631,-0.28365064057571066,0.2185299624773989,-0.2819519896277734,-0.08227100847983085
37.5,0.09597130409557608,7.057912020770277,6.783746872445205,-0.0020505376414197184,0.021068764424877276,0.10179664492902016,-0.04481263106962735,-0.04345166343751311,0.08892014889070293,1,0,0,0,0,0,52.33928467935377,4.951319723497323,5.68044632259327,3.699579689800804,233.87874766510885,3.7900919914245605,2.5,0.4245628748354065,-0.14382059002835476,-0.1471597729396439,-0.07449413679455873,0.09556493445096345,-0.04396978484044186,0.06908269392372708
38.0,-0.17387448453460352,7.121161166686727,6.756627429717843,0.005663009395057189,-0.08739863453347439,-0.053739453890493505,0.07060692297301628,0.07854890453406002,-0.019640232705193217,1,0,0,0,0,0,52.33927352585429,4.951293005453671,5.749315258051454,3.706703943148574,235.0253978459898,3.7900919914245605,2.5,0.42389597957746816,-0.15732122487950478,0.08294336637839853,-0.12331249664918506,-0.04169380555109054,-0.06172114923462798,-0.01151374171428628
38.5,-0.12323805827505133,7.06482807411081,6.659717419922817,-0.0005506060447315045,0.053085291773280405,0.06255212313029761,0.05983775161966873,0.06885516587361126,0.10238181795356321,1,0,0,0,0,0,52.33926218112288,4.951269158094954,5.834368209538553,3.7021205791263743,236.0743541229913,3.7900919914245605,2.5,0.4155314380352624,-0.14303052066918798,-0.11219946440692503,-0.09634602556549142,0.01827291422536454,-0.05140530387161869,0.07751744346872588
39.0,-0.09919784788301984,7.040222470342749,6.610479470013694,-0.008850779639960536,-0.025138157631089217,-0.0005854208109121878,0.1194766928769069,0.14562532193468614,-0.13803623108347512,1,0,0,0,0,0,52.33925328136675,4.951245950086867,5.900677343659108,3.676741707605426,236.6243703056249,3.7900919914245605,2.5,0.40851067310042655,-0.15876789051474702,-0.016040712235704666,-0.18423198067682484,-0.09100617540504084,-0.13912684588021146,0.02201493914934872
39.5,0.03839866978018881,7.1004295440572065,6.678716822502632,0.0012919846271333534,0.010771721868680847,0.04169061628904437,-0.0419512250525966,0.0006993156023798464,0.14447718198831333,1,0,0,0,0,0,52.33924521760553,4.951223273103945,5.961631471277472,3.6447851030352156,237.00783532119104,3.7900919914245605,2.5,0.42584499866128384,-0.13439026273933236,-0.0957521213237283,-0.08260369980654489,0.07705002429169275,-0.023723905498740976,0.03384050976034443
40.0,-0.26712689420623936,7.046001986210824,6.787307507486458,-0.0007079772788961907,0.06247617898668039,0.06139721606821591,-0.20075837855677645,-0.0324057456123454,0.11639214205959204,1,0,0,0,0,0,52.33923492932875,4.951201091026469,5.943409997485045,3.6312582916607727,236.73615186228588,3.7900919914245605,2.5,0.4174948782445733,-0.12209137571905664,-0.18271339983404436,-0.03320320217758635,0.02245697293955385,0.007592628038193317,0.0932418943878385
40.5,-0.19267781647318707,7.175424489509783,6.797662544951018,0.005805905498248382,-0.013037877729240928,-0.0664437573656986,0.03559229366841363,-0.003883692514668493,0.09788184398122446,1,0,0,0,0,0,52.33922639079945,4.95117907396879,5.902567047011209,3.623561069389886,236.24574981270914,3.7900919914245605,2.5,0.43042518700043664,-0.13447070311695009,0.017791256275662238,-0.07807607064977719,0.026733097561636665,-0.005717628514463398,0.01290880036032927
41.0,0.1400902836033873,7.251765287835089,6.969980809017863,-0.007176264801492948,0.07404254042661976,0.07212581667870172,-0.049430311574121324,0.013552563803616396,0.1440498744632217,1,0,0,0,0,0,52.33921594018824,4.951157111934819,5.84486271465616,3.6382185676052434,235.58241147990657,3.7900919914245605,2.5,0.4217730005638455,-0.1369640327433014,-0.17917735707652285,-0.1002039058001873,0.1062241173867083,-0.06555568743391584,0.07507049802720708
41.5,0.2517310054128891,7.253911602991739,7.088959995166341,0.024306786589543897,0.0033681663771048254,-0.17201220230112688,0.4353012568850364,0.0624126640501356,0.06729761609799693,1,0,0,0,0,0,52.33920734615296,4.95113516824779,5.782340530370044,3.659947161712745,234.8613417721111,3.7900919914245605,2.5,0.4448390443436062,-0.15524450716463417,0.17232421254127414,-0.12840647215783219,0.11690394829283679,-0.14614518371714857,-0.04496327042140234
42.0,-0.296332691496127,7.150708293399307,6.981235803813587,0.02583595120304188,-0.13026275786654895,-0.08776547301788637,0.3589136301191992,0.03686797523403794,0.12275053899427371,1,0,0,0,0,0,52.33919687656293,4.951112277152317,5.774878009812049,3.711259715698554,235.1535646158335,3.7900919914245605,2.5,0.4428221197205963,-0.1444544294422958,0.24002946189017388,-0.04295961278540676,0.007454761309517015,-0.006022875765466989,-0.05174351990890165
42.5,-0.35223864173289493,7.1026657140519065,6.946160742854256,0.0032548965868055384,0.0008044388604408759,0.023996188839653126,0.21922359330185112,-0.0027333970593398232,0.15042400975834633,1,0,0,0,0,0,52.33918827603835,4.951089387997795,5.7831467357102655,3.7719302333054086,235.78405523759537,3.7900919914245605,2.5,0.42339917810697797,-0.13767171123141086,0.0004900933590113497,-0.026168193773952596,0.02001286740677959,0.006980974911682179,0.04860937982113148
43.0,-0.06998389858712833,7.319039135876247,6.81428086604872,-0.0024533216647456097,-0.03184838351812613,0.07222103219395791,-0.30112651763840215,-0.1568357472497876,0.18261785483149634,1,0,0,0,0,0,52.33917780422947,4.951066181648461,5.797239095058047,3.7945396378907907,236.69400215511757,3.7900919914245605,2.5,0.4184794236038323,-0.138670412868623,-0.14606862422668196,-0.04509051707944994,0.11737695206892562,0.09587022629141803,0.03453454019101327
43.5,0.06401970140217791,7.413548392157083,6.747275457815797,0.0025987808287764704,-0.0318733203723992,-0.030598648472290296,0.23438013474878439,-0.0043117073377480775,0.15456760984298992,1,0,0,0,0,0,52.33916920294621,4.951042869534633,5.812995340576986,3.8051096423860553,237.69725022258413,3.7900919914245605,2.5,0.42141292982375467,-0.15803639117685236,0.04708798583684922,-0.13742343604049484,0.10125235513737339,0.0018274413427128919,-0.020247288962473575
44.0,-0.40015541638826124,7.177445050892463,6.82637815456541,0.002012071180903261,0.060815109210319775,0.0996289722775717,-0.24622229677300977,-0.03857189753375219,0.12416019360549227,1,0,0,0,0,0,52.33916124123992,4.951019204313011,5.812486893288379,3.8050347269883393,238.33193916971405,3.7900919914245605,2.5,0.3968733667088437,-0.13484877326562816,-0.20561607362944054,-0.03328084844848248,0.004746786268795494,0.04751923143904407,0.10695664319473935
44.5,-0.22677124354279204,7.184119252001704,6.8249290987039535,0.011922624232406132,0.004763509908778024,-0.08335057449519509,0.1851974749629472,0.09674344445395534,0.05116971958863213,1,0,0,0,0,0,52.33915098785814,4.950995739194176,5.807331075728782,3.8015925186166926,238.84360207222824,3.7900919914245605,2.5,0.4066179507395023,-0.1560443891662614,0.05963229878879482,-0.11028873781689372,-0.01757637770521593,-0.06309060799316114,0.007896060106898332
45.0,-0.10750514084479991,7.393530926725501,6.748418609060924,0.003065150811419698,0.026736292089911396,0.019991466207957012,0.12998508346952503,0.05993887518713843,0.08446612392472455,1,0,0,0,0,0,52.33914246126027,4.950972022955019,5.77859136290376,3.844943375464676,238.84786824369337,3.7900919914245605,2.5,0.3991463327698842,-0.16087511992332756,-0.04768892310286256,-0.1492168731527803,0.027012786844399284,-0.025015454449245512,0.03696422539772415
45.5,-0.05088222305038919,7.4849993772764085,6.709545228854546,-0.0024962897236973152,-0.030890455587473106,-0.0265358686453464,0.28878569115117525,0.08933594413695661,0.041619454444191226,1,0,0,0,0,0,52.33913452509069,4.950947905141055,5.743113090542655,3.903095502203686,238.68275000140815,3.7900919914245605,2.5,0.4002112968242503,-0.1765602187401443,0.05468198308227576,-0.19973610094585517,0.01206563679994753,-0.039557628585993765,-0.010680507522015869
46.0,-0.19219161757551118,7.345206523930705,6.761096024063944,0.006312900170846874,0.015055597959742737,-0.0020742009437026525,0.1527049954065913,0.09206670044410796,0.035359200174794436,1,0,0,0,0,0,52.339124280440515,4.950923335585185,5.819104375061586,3.9317450034678703,238.69423939443922,3.7900919914245605,2.5,0.39662384538089956,-0.16839370884039248,-0.013779791715652124,-0.15091133509368831,-0.015578090179437794,-0.04456230988561478,0.029124258285788476
46.5,-0.4733762107760128,7.1937183592474945,6.807504225040205,-6.93052353914975e-05,-0.025423415007623493,-0.037057384609159055,-0.09154834534200451,0.053590507814610756,0.05090071665904043,1,0,0,0,0,0,52.339115756828186,4.950898297559843,5.926943589619693,3.951062594273553,238.76469593605376,3.7900919914245605,2.5,0.39844636411290624,-0.15671616473449032,-0.018758321171183038,-0.0800014151562748,-0.07193212944232588,0.010279279455341865,0.02475714584397989
47.0,-0.28676390188928635,7.168923549409905,6.851211384522373,0.0015638356404400755,-0.019635375530507586,-0.02781122429206548,0.03571999637573539,0.051025242559397034,0.08832879688302031,1,0,0,0,0,0,52.33910782167943,4.950873103329438,5.94402440985739,3.967428214480917,239.52099701358776,3.7900919914245605,2.5,0.4013765080578808,-0.15823773688739112,-0.003891027627958784,-0.07821384985693745,-0.017426221927617485,-0.017377345007450473,0.007464886409590008
47.5,-0.28397598252564277,7.217255755609698,6.892721935779668,0.0073580289116259604,-0.04688643297006425,-0.07241694294782605,0.07924545656329782,0.12536205730989466,-0.028549702189549178,1,0,0,0,0,0,52.3390975773783,4.950847857014481,5.935174061511758,3.982860250066443,240.5062639578491,3.7900919914245605,2.5,0.3927941153812023,-0.17111488117095439,0.06208013989518299,-0.12877010096881095,-0.07667954983096155,-0.07542362895824174,-0.020087572539646468
48.0,-0.3882867338502047,7.168591420088623,6.9150780634972735,0.007390483373611844,-0.034145665170908064,0.07879237935562283,-0.16939804099550712,-0.01909319904797646,0.14176083276249557,1,0,0,0,0,0,52.33908905388532,4.9508222754906095,5.965018631073865,3.9740678879765343,241.3014926805183,3.7900919914245605,2.5,0.39317078210898276,-0.14538649882932259,-0.09277910220400715,-0.01842099604438187,-0.005107762244330149,0.05085060413823722,0.030052404430447686
48.5,-0.3398413678214767,7.164585615745812,6.904513721478342,0.00918123684454399,0.01547747308888947,0.01716369597116691,0.22241789928102532,0.20428272433599096,-0.0037760119491615785,1,0,0,0,0,0,52.339081118777365,4.950796900037674,6.005918831001157,3.957613026192307,242.03328088261497,3.7900919914245605,2.5,0.38286587177177983,-0.1642527323751625,0.00012548083830906818,-0.12594299341574594,-0.1001149869564368,-0.11026575176876441,0.026682182851807963
49.0,-0.43187036649655375,7.019376798950317,6.885609621220577,-0.01131863586373182,-0.004516061778796206,0.018628607842287117,0.2611404603365117,0.16626085901127427,-0.04132700113176632,1,0,0,0,0,0,52.33907589521418,4.9507766787683805,5.976567842887687,3.9478502273615534,242.47742690984103,3.7900919914245605,2.5,0.3783043906192665,-0.1600560656924985,-0.006275332431435393,-0.10644011963301625,-0.12823148353109165,-0.10314960641680906,0.0251678577220794
49.5,-0.2719601684186651,6.958040232988395,6.832805964917996,0.011601932563904363,0.026012603784331765,0.009686906824150734,0.36499475602898246,0.18887401529158399,-0.056883615183981225,1,0,0,0,0,0,52.33906908843032,4.950758493936712,5.927145196538744,3.940204217192479,242.82554925741186,3.7900919914245605,2.5,0.379415370871589,-0.16345745481960078,0.024621244778328392,-0.11265293495692659,-0.09189778339315172,-0.15152813296016887,0.0221150525190667
50.0,-0.19604101121118592,6.931249173425693,6.805977531100435,-0.0012532926262672477,-0.008520259733769093,-0.039820545148651694,0.26783797826443534,0.18986255091646606,-0.07988822899014628,1,0,0,0,0,0,52.33906425066784,4.950740988128736,5.871987822058402,3.9332277754762672,243.14161598915146,3.7900919914245605,2.5,0.3760619429407824,-0.1688766572085343,0.039104636378255064,-0.13035374551910378,-0.09658167013909044,-0.16317812090749284,-0.005099578618934047
50.5,-0.17721560825226512,7.073956048088997,6.779251908487164,0.010873032649870159,-0.02190858947839721,-0.03695100752949012,0.3169828379148514,0.18291469714289982,0.009647798326003584,1,0,0,0,0,0,52.339052555074375,4.950700188424568,5.873891426573162,3.9515316148128172,242.98065467731152,3.7900919914245605,2.5,0.383008697848988,-0.1691668822158209,0.0810024069725813,-0.12923071336073402,-0.057243508484663676,-0.11923904986811149,-0.017714549602333988
51.0,-0.4777029483031789,7.032080189299852,6.860104122277711,0.002551783832937535,0.017329437591806635,0.023867274272828608,0.09476943862019316,0.08264136401456568,0.06205617062631726,1,0,0,0,0,0,52.33904353535021,4.950675141980921,5.871065767512673,3.94820554934866,243.03795257896215,3.7900919914245605,2.5,0.37701579811619895,-0.14992566842806698,-0.04444137190796932,-0.04873831813840104,-0.0705862258940543,-0.029335484254216705,0.043548930320069054
51.5,-0.1738207100328431,7.153070730779457,6.842682874216912,0.018470704494377543,-0.07296352202273523,-0.12503027122874025,0.520569059308361,0.07514743743251139,0.14128172669007805,1,0,0,0,0,0,52.339037940931064,4.950655348257501,5.866888897677887,3.938037656849454,243.1681018590354,3.7900919914245605,2.5,0.40379119821525616,-0.16066162712598056,0.22970346135064032,-0.07912277578590789,0.028765868068653756,-0.03789363893814822,-0.07966316835250299
52.0,-0.0027164458051402995,7.187421076606187,6.839981827202076,-0.0008114039354498517,-0.015889721874477125,0.07553253763357834,0.2288137477404924,-0.035365204263671846,0.17580772607202275,1,0,0,0,0,0,52.33903351770477,4.950636988143457,5.862325969733307,3.925705603314458,243.32258130311692,3.7900919914245605,2.5,0.3918165523371903,-0.1492303176798177,-0.03998639229134484,-0.06322417229209362,0.0994242661137691,0.0016614172211382831,-0.004292252595373325
52.5,-0.11848662097613442,7.092253297124188,6.902878031270875,0.011249548289210006,-0.02021470608445237,-0.01099194266290654,0.20932072548523908,-0.1123694255501193,0.25488865547924067,1,0,0,0,0,0,52.33902196385104,4.950596221424019,5.840496101589721,3.8944573694453366,244.50664781132002,3.7900919914245605,2.5,0.3988153904168136,-0.13556172622432006,0.02688419122782582,0.01424228069406127,0.13374908633167376,0.05334711627663274,-0.026241712322974897
53.0,-0.3119810107903264,7.095090857653946,6.88419003470951,-0.009346186590659977,-0.019855134849308363,0.023472821849817208,0.14772452252678478,-0.05214939730484307,0.1905826542789706,1,0,0,0,0,0,52.33901550295304,4.950571185978702,5.849462335370866,3.880015066948014,245.16838891969343,3.7900919914245605,2.5,0.3832052685974202,-0.13637450681603513,-0.028276368445045254,-0.012806991616249196,0.04104709750481106,0.04600954800448837,0.002090503885477496
53.5,-0.3216180871613319,7.184332991769916,6.696397088475259,0.0001550045932389374,0.0075162686126512175,0.024609856612717633,0.09234760104608028,0.03818022704086853,0.08124683987238562,1,0,0,0,0,0,52.33900827309512,4.950551395922532,5.8672274072935,3.870888867430372,245.65577213696352,3.7900919914245605,2.5,0.37037645812220454,-0.14717539044483086,-0.04887273926522742,-0.08983659504199944,-0.022598005755898935,0.004543761857174975,0.020080252792500863
54.0,-0.5243912115831413,7.167216473295878,6.499636994985323,0.007416690938848917,0.06313954177442618,0.04566661198941298,0.1942477564842623,0.09654271398223904,0.12501128998911393,1,0,0,0,0,0,52.33900329067361,4.950533037031285,5.887506419221572,3.8634442221046044,246.08493923848357,3.7900919914245605,2.5,0.3649185954784218,-0.14273067498231207,-0.061009942307327196,-0.09049863133955557,-0.061327347924703526,0.026278440617152798,0.06317374767782107
54.5,-0.6206600230502677,7.159740188004185,6.399667305085766,0.004714163303717043,0.004487930608348262,-0.056155156237953405,0.21691262931089747,-0.05694494653443241,0.15791261164936737,1,0,0,0,0,0,52.33899656634179,4.950509752029443,5.919985959683202,3.8679262418760056,246.16158719602595,3.7900919914245605,2.5,0.3794036835190289,-0.13489007490168886,0.040458703436903616,-0.048200340568336095,-0.022899451842465276,0.12506332386396318,0.008762920068112284
55.0,-0.6743770359303125,7.151117392709931,6.531469310053676,-0.012057128570723276,-0.014255628426343644,0.07235121768297688,-0.028416634113707567,0.032437376643617594,-0.010277062148547511,1,0,0,0,0,0,52.33899175677162,4.950484506637973,5.9559510057765825,3.8761809877044167,246.12056373941408,3.7900919914245605,2.5,0.3579107341835255,-0.141798332691303,-0.09691716574470809,-0.09294895035393205,-0.13656461562928507,0.056341440194508735,0.0492598865604904
55.5,-0.4400356308750296,7.077946156215349,6.811103865034335,0.012637124656097119,0.10264888697468506,0.0425758276650222,0.09350020404700403,0.002489659914912668,0.18454231509001479,1,0,0,0,0,0,52.338985091541765,4.950459243264023,5.983734472792619,3.8856289340400885,245.30745711931314,3.7900919914245605,2.5,0.37711463467210554,-0.12884696934295625,-0.11708743877485082,-0.007939835249086313,0.014983568553238517,0.02473888494857381,0.07283253882453943
56.0,0.19844973034394486,7.193858512213474,6.654143188789367,0.03266154353866422,-0.07304512656070601,-0.17673063576859877,0.4865322753796871,0.014283755196367215,0.196751839172414,1,0,0,0,0,0,52.33897779181795,4.950433656052051,6.009180699170003,3.895454305591637,244.23661589362044,3.7900919914245605,2.5,0.4156559477879737,-0.15665861396326075,0.2553586032335525,-0.09896948323432783,0.14190474365115008,-0.03445094589374658,-0.12833355583403602
56.5,0.5015778053241737,7.244487607352689,6.574394750717819,0.006550966663038751,-0.019200244598745052,0.0670988424819344,0.1234504959413763,-0.039748553256234935,0.09944682134906058,1,0,0,0,0,0,52.33896525442165,4.95039111523462,6.108751899241846,3.9053990617669037,243.74590472043863,3.7900919914245605,2.5,0.3976266300139258,-0.15634835822562992,-0.06974458510968501,-0.1526423493745232,0.16951172610203402,-0.06026500337939765,-0.04806127441233494
57.0,0.1696339211616839,7.215592729395784,6.595496534169006,0.0009918469446143826,-0.051400274110305594,-0.07787047817468196,0.14570074115114462,0.07163256975067209,0.06461417429650097,1,0,0,0,0,0,52.33895594686517,4.950365806081354,6.12110089728404,3.903986813783898,243.87076465693357,3.7900919914245605,2.5,0.394826101131962,-0.16114668880441227,0.05667539800745494,-0.16273556751774182,0.04869020847348189,-0.07164415485045435,-0.07288390592737201
57.5,-0.1617760670125133,7.131983462956082,6.757766653047807,0.003749038269858909,-0.043749012029667744,-0.0231508339878883,0.04581300705268303,-0.006547044365100618,0.1530296720632347,1,0,0,0,0,0,52.33895025402935,4.950345924760822,6.108529743069104,3.8989821940912996,244.20112089475208,3.7900919914245605,2.5,0.3944904610674441,-0.14030459495929345,0.008854880356925941,-0.055435911646991735,0.03687400244900646,0.014893685006945401,-0.03344315326861038
58.0,-0.17540135627185544,6.917807674461496,7.076570491511593,-0.005828391792663154,-0.0005217682291614179,0.040519937647480485,-0.12927162419095017,-0.03338465571400469,0.13814721988862666,1,0,0,0,0,0,52.338945797152064,4.950327853280656,6.088838584292952,3.8928412593705453,244.60007802886648,3.7900919914245605,2.5,0.385970521573807,-0.1284029133509888,-0.1212573268403272,0.017999834701910734,0.03674713458806097,-0.02815594177681693,0.01096777038689948
58.5,-0.19748588302523237,6.741848636719177,7.386977774251751,-0.004875572769309417,-0.001527101324207277,0.1414144554532762,-0.46378616783290766,-0.17983844520859604,0.17871363383255645,1,0,0,0,0,0,52.338934231792265,4.950286547118441,6.168539019246968,3.8703880561179362,245.9989803406926,3.7900919914245605,2.5,0.38461343390354485,-0.10326282032829628,-0.2653916883290981,0.14214800242472447,0.08529327132435201,0.014761579317483902,0.03578363274725709
59.0,-0.1813893675839771,6.658152456420898,7.4769188371252335,0.015792653073686026,0.14030499426473023,0.012680342772836056,-0.06036020561881561,-0.03429392442782672,0.23500476034615503,1,0,0,0,0,0,52.33892525659807,4.950255610646976,6.2026053821447045,3.8837965526077265,246.03297012372954,3.7900919914245605,2.5,0.39008462448492437,-0.10651011364303763,-0.1774081142107608,0.1375527133056247,0.09760462601778688,-0.09520605349251116,0.05809695238210557
59.5,-0.5937393588646088,6.8237450734363545,7.15751517893931,-0.00489947385070446,-0.009145606743577506,0.012360357756907144,-0.2756095604222395,-0.14740608824288076,0.18946734791452385,1,0,0,0,0,0,52.33891716704278,4.950227813972283,6.2236338506482465,3.908548419460379,245.611300553798,3.7900919914245605,2.5,0.3886395548097533,-0.10581617833432128,-0.12510409240922557,0.12441687299089474,0.002732668920895086,0.08219688323343645,0.021530841063664107
60.0,-0.07482613346813916,7.0475852783173565,6.995468362320835,0.011547854596775757,0.06243900641262776,-0.029619227494149046,0.3046242452992194,0.014535500852980776,0.13520814504085527,1,0,0,0,0,0,52.338909380308394,4.950201382064064,6.181819507833005,3.9027040441560357,244.70444340125405,3.7900919914245605,2.5,0.39483878961917485,-0.13453067577440017,-0.011615515044580905,-0.036802020994338,0.06963584620908535,-0.07133813684155066,-0.0032834810063328357
60.5,0.20138284289021885,6.786741677405424,7.0542969783869935,0.018890375698574012,-0.013493650187103134,-0.09432348515005307,0.16096702855981973,-0.041584212280764705,0.23740410800960335,1,0,0,0,0,0,52.338901697115645,4.950175087377512,6.122050514867923,3.887181669864207,243.63561592211803,3.7900919914245605,2.5,0.4146063900918994,-0.12965709386959567,0.05947110942275397,0.038326774210914225,0.16363848497773867,-0.0804851035774885,-0.06720051688993955
61.0,0.33251614739687263,6.672808392439329,7.084186568298449,0.014363676571034701,-0.0613087856914665,-0.10737643394070005,0.45499268925401426,-0.04716052447360964,0.2266975933512872,1,0,0,0,0,0,52.33889404932623,4.9501548774436985,6.088583461755644,3.884550689512691,243.25659850175197,3.7900919914245605,2.5,0.42438348773713264,-0.1327218976135908,0.16216204789262217,0.041030943452651555,0.18931714764413551,-0.11646166956481165,-0.1107302466148226
61.5,-0.1767895066351478,6.782742180407344,7.048729070275189,0.008534137014608752,-0.063602958084385,0.03722174311916883,0.24714813377892092,-0.06981651625616572,0.20213298072006142,1,0,0,0,0,0,52.338888924004046,4.950137014233697,6.062631207501274,3.8859974287994703,243.10787075988048,3.7900919914245605,2.5,0.4073035982990312,-0.12131833994623858,0.04115228160835335,0.06761000733944328,0.07705514627922086,-0.007877297040614791,-0.031136360873768212
62.0,-0.45622942727108595,6.9690642900238,6.943021529784118,-0.003905162842160508,-0.016306365535075883,0.08485230518485917,-0.09679665322259584,0.03922765835917964,0.07327060741544372,1,0,0,0,0,0,52.33888466117311,4.950119615666289,6.038826026892074,3.888734005129902,243.03601053042928,3.7900919914245605,2.5,0.37864722091206104,-0.13033672512802813,-0.10785893627875323,-0.012439434934495784,-0.06673829550363945,-0.011871172542413697,0.044511826545275274
62.5,-0.2927937934701035,7.0159138394405085,6.744709795092378,-0.007936173403313505,0.0477752401177055,0.05422005522974402,0.09185790486451142,0.038217730453395944,0.03594696421586836,1,0,0,0,0,0,52.33887818288634,4.950096650871966,6.0659683112808676,3.8827627604159063,243.57826969981915,3.7900919914245605,2.5,0.37642211233111084,-0.13633764407021945,-0.11517023170456553,-0.07261138745430427,-0.0335755442941117,-0.043807742722967155,0.04944825954264146
63.0,-0.2152008961753532,7.036377147896479,6.643951748737869,0.0014598945448651215,-0.020723694318536705,-0.004984026571855871,0.14401916316081662,0.09493182082562766,-0.00566603522437209,1,0,0,0,0,0,52.33887094708279,4.950071512249536,6.107666594030083,3.8740369528991803,244.32553038049525,3.7900919914245605,2.5,0.3793848622901551,-0.14564591835483126,0.0006712859914829648,-0.11269677721947745,-0.05668012327564964,-0.06874767180169365,-0.009187619000121638
63.5,0.014713619302767406,7.117482588970858,6.628012110304574,0.011219354305423687,-0.036714036342563726,-0.07152523522058929,0.30133422219774864,0.07819501786303165,0.012888837249476068,1,0,0,0,0,0,52.338858431542334,4.950028485324468,6.101451957322733,3.8712768637392587,245.37439023507378,3.7900919914245605,2.5,0.38598114023031205,-0.15185774656699724,0.09305298873718428,-0.1387196114188933,0.009958061497632007,-0.08565380368821646,-0.06152284234019937
64.0,-0.30243954930532957,7.155603724217572,6.7567781805040985,0.005597294067960631,0.06962369727331516,0.027875785116218216,0.058004984322487574,0.13454097431133633,0.05033929401320218,1,0,0,0,0,0,52.338849131458886,4.949996975086966,6.056301450756139,3.8806591826654073,245.42475713489307,3.7900919914245605,2.5,0.3649946689901299,-0.14229576274133238,-0.09869281492068457,-0.10829209683513939,-0.05684501620577214,-0.0664894845238077,0.050372510261241885
64.5,-0.5323787089523404,7.054064298778414,6.8325008599696595,-0.0023019393138323033,-0.012093487986077386,-0.026430361347275437,0.14666136851812545,-0.015391124338189982,0.14771497077875467,1,0,0,0,0,0,52.338840930816275,4.949968987097437,6.000026811384875,3.8938823070264075,245.1417968108139,3.7900919914245605,2.5,0.3800764512159642,-0.12802940168944102,0.011458668857920906,-0.007664387458431499,-0.028535863922700543,0.047523045254718704,0.007308863332274754
65.0,-0.7171415908498625,7.150746346654816,6.71974869316421,0.003402310647776877,-0.00019176301982581564,0.05483754927573845,0.013621034113019542,-0.01685202592160134,0.031393625387013485,1,0,0,0,0,0,52.33883310609851,4.949942491397769,6.008366293425031,3.904901817679066,245.01402555798893,3.7900919914245605,2.5,0.3665902657569347,-0.12969335921932346,-0.06659204262641844,-0.03931732991245076,-0.10182228454564406,0.0709308436294048,0.05157994959266122
65.5,-0.624665645413329,7.130881997326751,6.742179455543072,0.015046791797528547,-0.02977101651623401,-0.0653459213448001,0.16463181905265079,0.07118941465141504,0.07476649702056506,1,0,0,0,0,0,52.33882540991834,4.949916175440785,6.035166852043747,3.9152242959599484,244.93806112268229,3.7900919914245605,2.5,0.37771131082558224,-0.13804737401117834,0.08392051447572559,-0.05279002215747435,-0.09467108129975062,0.024476235126114576,-0.0050162286797941335
66.0,-0.5337571909740413,7.126720264416772,6.81878638970315,-0.004375660582978079,0.02176063896738,0.06734843857562778,-0.03562258911538435,0.0843983987983758,0.07767576810728495,1,0,0,0,0,0,52.33882026805022,4.94988960157467,6.0724521136702725,3.9219077819826476,244.87940153885572,3.7900919914245605,2.5,0.36507262286292685,-0.1347191215308163,-0.11102873483286628,-0.05895733561665162,-0.09106482093212608,0.0010886454179061815,0.056126379947734555
66.5,-0.5567680119168295,7.075948450147342,6.79803068165748,0.0005736846851577227,-0.004973858672410594,-0.015575601866757743,-0.04849514119927011,0.03343370102827725,0.008125618245943628,1,0,0,0,0,0,52.338813489199836,4.9498632595541,6.1127329883439545,3.9274403692802142,244.8265086742161,3.7900919914245605,2.5,0.3706355181783805,-0.13523487221341052,-0.044303180625791354,-0.05321292040110013,-0.09918256538175191,0.0038034028752590683,0.02177312220091388
67.0,-1.0762265629398016,6.6753132128783275,7.0816965579718225,-0.0019649721217004953,0.04245164745797102,0.07310401258851851,-0.0767197510793327,0.02639324748170064,0.10263188410656046,1,0,0,0,0,0,52.338806150626475,4.949842715995375,6.141566300387251,3.9269114469247386,244.7422303983717,3.7900919914245605,2.5,0.36794872698900755,-0.10459589748483679,-0.12574602999770432,0.11850774921384259,-0.1707442131304148,0.03739929502740854,0.10406660134765643
67.5,-1.3228453269205303,6.500320656052518,7.225821259212022,0.026260436855011532,-0.024510377086664967,-0.1747443775184495,0.33434521155313063,0.06644699505142368,0.1311560800316734,1,0,0,0,0,0,52.33880113103258,4.9498244237004805,6.1671292387373855,3.9244651883165376,244.64748488556344,3.7900919914245605,2.5,0.39327196217729543,-0.10261444231438378,0.21811345126212622,0.1836857540215161,-0.2044195830715311,0.022825273760217184,0.008048071732395771
68.0,-1.4259484738716406,6.572938226307276,7.136581380612999,-0.002116923868942005,-0.03742469131430696,0.17301970612437118,-0.2344573327237111,-0.1258869954738002,0.14399698593434684,1,0,0,0,0,0,52.33879690435264,4.949806882060286,6.1917577897141225,3.921412450709467,244.54923492673387,3.7900919914245605,2.5,0.37384362667249404,-0.08135587422984665,-0.1511252060632923,0.23115219539724813,-0.19289320368871196,0.17255956378106527,0.113095701292403
68.5,-0.6075151321992228,6.886116995558746,7.027913697581754,-0.0015410433448749502,0.04821522326883564,0.05211006335992535,0.08387002278693412,0.02105416368042276,0.10934655690155898,1,0,0,0,0,0,52.33878541770276,4.949765752566332,6.193482161917517,3.9136099688736743,244.05011936930586,3.7900919914245605,2.5,0.37959104474317096,-0.11624809252913644,-0.09656045283661417,0.0337881354481094,-0.06567200329945103,-0.009065060026240883,0.06257156980000206
69.0,-0.6117687510891076,7.16670581410525,6.8418104799209365,0.006138201611168685,-0.029998948036699537,-0.011128759712640823,0.007776863803875683,0.08813646368765549,0.05986573802999406,1,0,0,0,0,0,52.33877646942135,4.949734875002605,6.236942386721836,3.8974682194006878,243.35056168645394,3.7900919914245605,2.5,0.3830087589598045,-0.1307064335546535,0.004470960724181322,-0.05828271889432632,-0.1149643196024294,0.012954847626226604,0.01365592146360844
69.5,-0.6811529310589058,7.366552336327112,6.661652045070841,0.005243728551888824,0.10167713115427765,0.06944676207364234,-0.03335197159743,0.14693858460464268,0.08949972587018515,1,0,0,0,0,0,52.33876838906818,4.949707733653928,6.292327075623271,3.878688485477428,242.58409034447064,3.7900919914245605,2.5,0.37287823282596033,-0.1286607644901009,-0.15339683870131682,-0.11393141181214066,-0.1272948824481414,0.024177971310065258,0.10852043883853935
70.0,-0.7774681005641448,7.356204171047664,6.582918055717284,0.01517832388325892,-0.0450951654539363,-0.1467144063925237,0.24710647032152053,0.0050707913370521,0.0716302230783441,1,0,0,0,0,0,52.33876060548022,4.949681202413664,6.32382758237548,3.917187878671889,242.0617551646078,3.7900919914245605,2.5,0.40198685813609997,-0.13159815252021734,0.16281220288845838,-0.08421774436525303,-0.10332867803681323,0.10619869163199991,-0.027530469702103873
70.5,-0.5045323290582877,7.176319022747771,6.775417884994987,0.010377881822366099,0.027638086628887268,0.013662807914478603,0.2781250898126911,0.00012190641372697777,0.14295395572188993,1,0,0,0,0,0,52.33875041300131,4.9496551924481285,6.348503733808326,3.9738054228276627,241.6209098732429,3.7900919914245605,2.5,0.4006688299263504,-0.12609345092983998,0.0015552205019127216,-0.03622793646934129,-0.019575712539246656,0.04219684412387717,0.02678830486425346
71.0,-0.5363579449444777,7.0614278068010385,6.842707138193449,0.020575127868059047,-0.03652443819020547,-0.10638491779204033,0.4652573119526502,-0.02299974902431656,0.18340670021585362,1,0,0,0,0,0,52.33874190722757,4.949629038452887,6.291556547427987,3.9848774460216227,241.57367389875623,3.7900919914245605,2.5,0.4151198117811075,-0.12609183875814134,0.1829008671806673,0.009057040464753795,-0.0004035424679217257,0.04983511445828758,-0.03979924194959818
71.5,-0.4360930333471378,7.0843896124400105,6.795706420889283,0.011976174886054498,-0.06510505481387927,-0.00759007519370665,-0.15671614992243,-0.005934710839223884,0.07950732168072257,1,0,0,0,0,0,52.33873397817825,4.949603154274807,6.211288875532019,3.9815428141926836,241.65782648404527,3.7900919914245605,2.5,0.39231160985665514,-0.13312267787519627,-0.008516272171023432,-0.02655206187448908,-0.04726797272055605,0.036038782191348886,-0.007128502810225722
72.0,-0.3884911438025772,7.094419047457987,6.771826339056559,-0.0019014461948093763,0.021769092686839547,0.106268053096845,0.012671342235215016,-0.053777030744537616,0.13442713605792173,1,0,0,0,0,0,52.33872875668665,4.949582763377717,6.2410511106502655,3.9668143051961153,242.08562504182993,3.7900919914245605,2.5,0.38821253297786906,-0.12285808255814731,-0.1319537915895858,-0.018734122830679805,0.004252353700328853,0.04933743483015419,0.052176682351779
72.5,-0.45380481914965304,7.1115013522405235,6.793975683200613,-0.0016012264541007736,-0.021359624343352673,-0.010752933077719143,0.037240501043264596,0.0642260500749226,0.034343273567052565,1,0,0,0,0,0,52.33872195061112,4.949564521985862,6.302250290122945,3.948481761065885,242.62813288008206,3.7900919914245605,2.5,0.3857477213100116,-0.134091189651957,-0.016405171157589774,-0.07226694567058362,-0.0855440031795605,-0.013640832670011791,0.006619782735184217
73.0,-0.13375685080847283,7.138436286518904,6.87856125361251,-0.0030167233431652794,-0.019439453041296954,-0.05758474578437816,0.4780578269614168,0.12167620044522302,0.10405958812890075,1,0,0,0,0,0,52.33871711309083,4.949546997318626,6.3724317451714905,3.9290092126110885,243.20894431923085,3.7900919914245605,2.5,0.4000065336533278,-0.13957651003448324,0.10250072781143037,-0.10500953693706654,-0.007380646695895845,-0.08665579947080583,-0.0465912084126129
73.5,-0.8348656558569771,6.5781164333698126,7.081855882703461,0.005645641573896375,-0.012461842446465234,0.018242781847800794,0.059078464373895134,0.046156346638350526,0.0040978870721041505,1,0,0,0,0,0,52.33870541758018,4.9495061913260825,6.496903552731506,3.9228497861278533,244.2022383700309,3.7900919914245605,2.5,0.38678404490943935,-0.1040580230724051,-0.022159088193929668,0.08916250802226985,-0.1665194683812604,-0.04123873680062298,0.032057352425416366
74.0,-1.1677249120508775,6.333375595266792,7.1851456335263695,0.003248098619787154,0.025944458477009262,-0.01225295866217,0.07417734715014632,-0.029172809509576056,0.20979901426693054,1,0,0,0,0,0,52.33869639788432,4.949475739471699,6.472874218200356,3.893554036424942,244.70037246182648,3.7900919914245605,2.5,0.3947872663132786,-0.07562800854818498,-0.02212912756717221,0.23815346232543702,-0.13993918172433417,0.04945958628955577,0.06325051779565675
74.5,-1.0828449137052152,6.469729877265207,7.166146821170101,0.02603248810886425,-0.004354505771616477,-0.10020247893543735,0.5502091476588249,0.03341660916686974,0.1808602652110114,1,0,0,0,0,0,52.33868829311287,4.949448740070276,6.40641621798028,3.8569397964694367,245.03320714541496,3.7900919914245605,2.5,0.40493503992685836,-0.08673780217079084,0.19609519563085873,0.1831115986100508,-0.12904078403009778,0.008040862971343946,0.003199800489777999
75.0,-1.0238207223399989,6.8069745162057975,6.998971246792012,0.019311633092750635,-0.09035840539257822,-0.02743450781514599,0.22348898495931874,0.04475509752173361,0.10385639582436006,1,0,0,0,0,0,52.338680501175716,4.9494222561604815,6.442603951243856,3.845358224608466,245.77717661655637,3.7900919914245605,2.5,0.3921657815594817,-0.09856394247539849,0.1391983829155802,0.0869524182286657,-0.17186870438541235,0.05676268945064151,-0.016060664818125688
75.5,-0.9505846043887095,6.940869609710548,6.828282478792622,-0.00140539328879348,-0.017766635439352405,0.010123821205645922,0.21512174730705452,-0.036092564346130396,0.1486560146774908,1,0,0,0,0,0,52.33867532656601,4.949395944134679,6.50811921713339,3.841694819142892,246.65840551086492,3.7900919914245605,2.5,0.38651692378253777,-0.09356946841373073,0.01771181837174142,0.05838938854984595,-0.11656038016862161,0.10751863430068125,0.019228146709545764
76.0,-1.2434006922270846,6.945986068293319,6.689797133625741,-0.0020153013238759514,-0.06791972952050687,0.025745409058372984,0.09785376108931686,0.03070632446276919,0.027975544003120995,1,0,0,0,0,0,52.33866853652051,4.94937000726336,6.472259542823653,3.789259664720021,247.6520564664725,3.7900919914245605,2.5,0.3702508895816044,-0.0951878240212416,0.03347438742755233,0.026462043683999077,-0.24951217487223423,0.1197407105298689,0.026863445456412702
76.5,-1.1930182388689843,7.015974669744251,6.66422345441739,-0.002224097148026919,0.06255966892062595,0.13727956497309995,-0.3314736209782746,0.048768765840789416,0.11529052080307392,1,0,0,0,0,0,52.33866119411927,4.949343877640436,6.407436098895156,3.721397193376909,248.68324747986676,3.7900919914245605,2.5,0.3494939871800829,-0.0834987462521238,-0.23279108209734917,0.03364417219669355,-0.2174264662697886,0.1318075187745594,0.13232744574416788
77.0,-0.6016520613519616,7.067366062151971,6.776853790050103,0.014150106335158799,0.049986957481206004,-0.05256062675446388,-0.028327389736295616,0.04760844807428331,0.10797446478777074,1,0,0,0,0,0,52.338656173216535,4.949324040586944,6.400152589622881,3.704489296491285,248.91645863908687,3.7900919914245605,2.5,0.37096354830958667,-0.09955542239315734,-0.041966104581228576,-0.02019739453778874,-0.07900882674092753,0.020617550710911,0.02279479447410834
77.5,-0.7971599880984845,6.907338929278431,6.826633778710169,-0.001684276212336272,0.037064576383711974,0.10388447608142509,-0.38178255611013706,-0.017835662305275266,0.08401536518970247,1,0,0,0,0,0,52.33865194608907,4.949305983867048,6.409308631168972,3.7036990103069,248.8832900921433,3.7900919914245605,2.5,0.3579975783509945,-0.08469411824484693,-0.2240567250540497,0.045227881111049854,-0.12678196456368407,0.06907482904807628,0.08289696523471123
78.0,-0.7757675345381975,6.725652448641807,6.7841555623161325,0.012600814501838652,0.008475639980067857,-0.07892360055202488,0.0918355764804864,-0.010167316465324313,0.09615324161520071,1,0,0,0,0,0,52.338647990372166,4.949288520776278,6.423161661545765,3.708006939100906,248.76118575736194,3.7900919914245605,2.5,0.37946735396162284,-0.08750263631764037,0.03212173904227558,0.06579466067019439,-0.10272814214933604,0.03180522691052185,0.003477911881755509
78.5,-0.7656112276583444,6.646294022747938,6.76257326864531,-0.0008995400670155206,-0.03936566741614936,-0.01944591605295029,0.0649826795431074,0.1441269710878494,-0.061506617414535655,1,0,0,0,0,0,52.338639106732955,4.949248053157606,6.450017759606134,3.8119224983137063,247.5879372072411,3.7900919914245605,2.5,0.3660268270846272,-0.10997229822635794,0.01687671225400266,-0.005383988241868573,-0.2201379642585446,-0.06894169064433123,0.004740234203074361
79.0,-0.5618688782099989,6.891406861005626,6.7690285165517174,-0.003097557739599641,0.04774022944070318,0.08134699490980705,-0.053984123444974136,0.07686165307693558,0.0788429114713075,1,0,0,0,0,0,52.33863355884448,4.949223435285555,6.4773700010849655,3.8288397000749126,246.72995452469019,3.7900919914245605,2.5,0.3685467818810132,-0.10456175178030051,-0.1485464036757013,-0.012187025277893232,-0.10452526499747546,-0.017220138144724922,0.05986938025626842
79.5,-0.4790274308769862,6.943989488382329,6.826101117614665,0.0017124989984046357,0.02927071497379373,-0.011595516233384173,0.06736224783926606,-0.014490759757162144,0.09219567790265341,1,0,0,0,0,0,52.338629151528124,4.949204102305768,6.504864337649645,3.8182381624102426,245.977206983061,3.7900919914245605,2.5,0.3856802758888191,-0.10215111205892712,-0.05428031422707058,0.00032931304949461237,-0.0433770722751117,0.006148240026530009,0.014680492577104553
80.0,-0.27386262397812755,7.062405498338659,7.192802251113596,-0.00011994217606466659,-0.01810471355301093,-0.007209845666137309,0.008533894869278906,0.04055439997296909,-0.032126948384491996,1,0,0,0,0,0,52.33862262383837,4.949186849346701,6.532399272588239,3.7989320808694353,245.2596002872799,3.7900919914245605,2.5,0.38628257025491963,-0.1126261138434941,-0.041117873714856555,-0.04600527719055412,-0.06271442751615151,-0.08906667627550313,-0.017622056721234226
80.5,-0.051626407087947135,7.084816656109763,7.559914810029448,0.007528460897020106,-0.013295809895128213,-0.05014405493464602,0.4101046696686188,0.029082441119738938,0.1980721735816024,1,0,0,0,0,0,52.33861286078078,4.949147087477712,6.5108903958357365,3.8611940757232692,245.35312625281583,3.7900919914245605,2.5,0.408044541788051,-0.11012440761539606,0.0834560012833977,0.021723065385532817,0.07909330360644054,-0.10060860541716524,-0.0638256547849159
81.0,-0.0150528703160418,7.131632553268552,7.529207175183633,0.0044210162413260545,-0.04599083453983342,-0.013010145691175555,0.08089139135638113,0.08741295575997982,0.03747476281713541,1,0,0,0,0,0,52.33860450183635,4.949122069244736,6.500969158730763,3.883167327550696,245.38434805594014,3.7900919914245605,2.5,0.3908053368369563,-0.12357413672506486,0.006445571653894059,-0.040225565986721404,-6.875262514964414e-05,-0.1469226659889715,-0.05727915934363884
81.5,-0.032753907160829786,7.13125966438785,7.241288021755391,0.0021677727308088046,0.03647630184734364,0.04606987067836036,0.18119094940964472,0.07494299251492856,0.11504017424481461,1,0,0,0,0,0,52.33859913335345,4.949102284927798,6.494358657703678,3.892396713245286,245.39477084050856,3.7900919914245605,2.5,0.3869840694062974,-0.11919103287027037,-0.07362150352478353,-0.04792362874026306,0.03265360366097655,-0.10936120840693617,-0.00318685196044669
82.0,-0.03766998019360892,7.221457743662171,6.986122568671923,0.006603513640165424,0.0093225199307276,-0.040797974081794676,0.1108933280427694,0.06449382295553509,-0.025881723130105533,1,0,0,0,0,0,52.3385947873801,4.94908424579222,6.488693735498125,3.8975950443124034,245.39825028202984,3.7900919914245605,2.5,0.38287481682731833,-0.1318790347581115,-0.017313413633590447,-0.11977287361443736,-0.010911190201195634,-0.10720479020247321,-0.03349655267452798
82.5,0.39607536638755825,7.459535169302019,6.804127859428337,8.874048834826322e-05,-0.003974239953172486,0.042239004263705034,-0.16116771634360566,-0.07290497526551441,0.1594228753679651,1,0,0,0,0,0,52.33858325994098,4.949042632572892,6.519911295490958,3.9265867867317947,245.73249666446307,3.7900919914245605,2.5,0.3898715530093708,-0.13053777639069167,-0.1408616184578039,-0.1317014349022922,0.16493787747585822,-0.009355501570988986,-0.048792066727778374
83.0,0.5229478791299494,7.511605539476015,6.742411307957609,0.021976930568889677,-0.026477717653754142,-0.0408955866013272,0.23069026003429033,-0.007465850544058614,0.25858336965146855,1,0,0,0,0,0,52.33857429771276,4.94901127587522,6.554337987350737,3.93575726107765,245.84407824170262,3.7900919914245605,2.5,0.4075501218875479,-0.13676669077406803,0.051108901707254836,-0.14677297491230593,0.2157108814636881,-0.02776404839455067,-0.10804816166669147
83.5,-0.10378663844498681,7.210605956341673,6.720882740850271,-0.005377957511870861,0.029387409155677256,0.10696383756033367,-0.2180252732251554,-0.05564873678270748,0.031161507023407087,1,0,0,0,0,0,52.33856621259085,4.948983021239556,6.589681569014975,3.9386580042793327,245.88132755548313,3.7900919914245605,2.5,0.3737777318881447,-0.11873637000484576,-0.21685698812452375,-0.08807135297311326,0.014178267774531877,0.0023602274202176874,0.022589384897236733
84.0,-0.04811130518994268,7.129063806018541,6.772241546945855,0.012995060087011328,0.011016685090878518,-0.04220472696207467,0.07685333515432208,-0.013121787934309681,0.03144995839956842,1,0,0,0,0,0,52.33855842737234,4.948956436630196,6.579576385982834,3.939575547996786,245.62729870036574,3.7900919914245605,2.5,0.38874252384089947,-0.12444621109990901,-0.021382510483635077,-0.0838970716185962,0.028529327453249813,-0.049381846240654836,-0.038068579317792305
84.5,-0.03148208405492871,6.461492292522589,7.01768480425658,-0.013117326233450455,0.024717651166583976,0.023659354576902228,-0.19513680740868772,0.02915899134995599,0.21303598047761085,1,0,0,0,0,0,52.338550744697905,4.948930091027431,6.556485912628187,3.939865779297837,245.2760323605388,3.7900919914245605,2.5,0.3889158483293484,-0.10216114453174834,-0.15952195487849985,0.0848756061743527,0.04554570894170627,-0.10645013437501179,0.002592209710402728
85.0,-0.023587175107519752,6.169905244895297,7.142389391889566,-0.0008802689239109027,0.013937184334470434,0.030967543589766056,-0.16586188278152209,-0.050385930896290454,0.20406118234856904,1,0,0,0,0,0,52.33854309708571,4.948904142960309,6.524431982031173,3.926283862798537,244.79237364917807,3.7900919914245605,2.5,0.398156603024426,-0.08976288572344895,-0.1385610961941429,0.1747150268502168,0.0773428278678137,-0.11936164165673953,-0.002706577062862277
85.5,-0.16653922806493085,6.548828552926662,6.905329036186504,-0.006600933386401107,0.04230716120360966,0.03600947900109609,-0.23576460570666063,-0.09801581455650449,0.09315158461608414,1,0,0,0,0,0,52.33853546146213,4.9488780096042895,6.489817077657135,3.908314001149726,244.26451834989118,3.7900919914245605,2.5,0.3871985309299407,-0.09724654997446519,-0.19051450481318746,0.07656599501822153,0.03483091494873191,-0.050155272224809914,0.028666287883720724
86.0,-0.2346271827386012,6.945092070045341,6.927545595666538,0.019666842881285777,-0.009535824512089439,-0.054135030869118236,-0.019110591361423346,0.0043292144895789725,0.23248845197862508,1,0,0,0,0,0,52.338530340299734,4.948857853464048,6.503122612775694,3.909466754784626,243.84404067488202,3.7900919914245605,2.5,0.40268030986702463,-0.10671071637672547,0.010970314941127664,0.031362019643764706,0.04338971836009947,-0.0019514687834742874,-0.026132276457555656
86.5,-0.5519327680850926,6.898067462441867,7.120015556541172,0.0027820239540368233,5.481421008626981e-05,0.008575412987789938,-0.16829415091379346,-0.18091360417588487,0.14352699907779246,1,0,0,0,0,0,52.33852607889113,4.948840008190815,6.530119967752092,3.9166682463790505,243.45940890668547,3.7900919914245605,2.5,0.39829375320868665,-0.0884707982611705,-0.10009631527150112,0.10572287019957458,0.011833902744566825,0.07906530763919344,0.018433028591279772
87.0,-0.8992354881069149,6.865803143348219,7.4998338052319236,0.026624733943198413,-0.03155984331958301,-0.027529280889975347,-0.010452532629878386,-0.19932863823017027,0.3245218798573071,1,0,0,0,0,0,52.33851960109068,4.948822615604191,6.561029249864139,3.9257830343694002,243.08674358907732,3.7900919914245605,2.5,0.4180182707797659,-0.06912372692600893,0.0353846140933263,0.23968669925544117,0.020053845049086628,0.15109104881530908,0.004032856302167214
87.5,-0.863755448053576,6.87108309891776,7.5417921886121855,-0.01160830254368446,-0.0014098135605273912,0.01773294150615158,0.030335347010517308,-0.06618824488376826,-0.008990363338374163,1,0,0,0,0,0,52.338512365453425,4.948799970646079,6.562735781099292,3.92524765160165,242.96233660636452,3.7900919914245605,2.5,0.388801730807645,-0.09114387111727446,-0.0678532108898475,0.09928083057091018,-0.1323567987350391,-0.007986414717232888,0.04002735583611812
88.0,-0.8053735534094858,6.927026229212868,7.246711100035198,-0.021392803120672012,0.0044539229524786705,0.0003293611554906692,-0.21010822554703984,-0.15465592279975027,0.17501989222180864,1,0,0,0,0,0,52.338504870693825,4.94877525651088,6.556098714859673,3.921659954270271,242.9208057833541,3.7900919914245605,2.5,0.3943158834364288,-0.08316875348868788,-0.12969717927403795,0.12081579443288486,-0.048283461998994665,0.10595651677555686,0.04243086108038745
88.5,-0.744602197574816,6.950585726328992,7.064740372900923,-0.005067422163519412,-0.013869399482473663,0.02575842776558333,-0.08410063542430671,-0.01267656457498642,0.25724180735594243,1,0,0,0,0,0,52.33849226661017,4.948733006809563,6.535942582867101,3.8795037932280376,243.5065003451645,3.7900919914245605,2.5,0.3941855900219596,-0.08764701030417121,-0.06305300737555566,0.0873205032405573,-0.05913417858278,0.08277320334779646,0.033046958251960766
89.0,-1.0064173332227098,6.943491227841775,6.772269576373412,0.005571266543792282,0.0425633905157423,0.02739350141452724,-0.13066792245785955,-0.13175989243455882,0.14139170283268515,1,0,0,0,0,0,52.3384829362517,4.948701437885235,6.517587016623274,3.9242826316377677,243.73533346583844,3.7900919914245605,2.5,0.3842592218320115,-0.0843551311978965,-0.11377220548884054,0.0902267613367867,-0.0939727001518594,0.15416592857688666,0.07798384929148511
89.5,-1.1307170006702378,6.940392437934682,6.623671279254656,-0.00637971742088109,-0.015550714653699164,-0.026303383506627247,-0.09530551068251898,0.01820151489464547,-0.007334263621762871,1,0,0,0,0,0,52.33847472525734,4.948673112485348,6.499746235521342,3.9965603314976623,243.8450252520172,3.7900919914245605,2.5,0.3695498471886134,-0.10801933209663181,-0.033878269420428715,0.0031315642966191857,-0.230835239491108,0.09233630943358219,0.0511974039890687
90.0,-0.7226389157902566,7.012722536285927,6.841058648246548,0.005473945880414584,0.015346158305534444,0.005501629392860259,0.0684864746055389,-0.004516606410714323,0.20160815971428284,1,0,0,0,0,0,52.33846689700007,4.948645550754582,6.47137101877477,4.0091671959234,243.81503282733584,3.7900919914245605,2.5,0.3855155463895379,-0.10500886815395771,-0.029472430155576518,0.038455629919011816,-0.06003860249692979,0.07634692474126517,0.034037345672278944
90.5,-0.7586429293847721,7.018305616472616,6.881413452400032,0.007971815629121323,0.011832670678801546,0.050828498375740834,-0.1151996529523071,-0.019147212284625563,0.16111289203104145,1,0,0,0,0,0,52.33845919960966,4.9486185615013705,6.439985979733946,4.002899706192986,243.73839941272053,3.7900919914245605,2.5,0.37877656608855315,-0.1032174587045556,-0.09203071897234799,0.045403065716719315,-0.07907912764446227,0.08240310039293242,0.053942222849674704
91.0,0.09525980723688876,7.659369915146383,6.757842122614953,0.010372518109139252,-0.023037320482564183,-0.0004406238358547407,0.12783863396972261,-0.08495350700412843,0.011320207073744093,1,0,0,0,0,0,52.33845154696573,4.94859144529137,6.424809078988629,4.011172424590628,243.67950633837378,3.7900919914245605,2.5,0.3869062124449041,-0.1411151878029691,-0.013919122678214699,-0.1811631509154473,0.08292028228414626,0.01757999210849067,-0.049022030774138636
91.5,0.5006596934273901,7.9393789365179614,6.695058113418891,0.000492880607316816,-0.002771424582661712,-0.037965829774200335,0.14862903341018596,0.2137408757381575,0.038387400784632916,1,0,0,0,0,0,52.33844390962168,4.948564604591274,6.414263390170666,4.024044730526328,243.62654569246138,3.7900919914245605,2.5,0.37589664959453023,-0.1743637879483543,-0.004994614930719852,-0.35087646872993805,0.06447152059782416,-0.1270449950075504,-0.06687289021413957
92.0,0.39089817757676865,7.689322914502573,6.838161416754825,0.0005459170301433434,-0.019195496036522104,-0.03565468917246777,0.35284170428347167,0.06617148870306075,0.08258507498228113,1,0,0,0,0,0,52.33843627750902,4.9485375379143814,6.378773243405227,4.03837162126732,243.74209772577282,3.7900919914245605,2.5,0.3874611972767628,-0.15738719498771525,0.0465585769728061,-0.23731402468515236,0.11418893768872447,-0.08204873703412943,-0.07867929267789169
92.5,-0.15629862842143555,7.369764361864513,6.832946567182878,0.010761657629957542,-0.007102014090016338,-0.031571048538020854,0.205494689832529,0.1237151655762492,0.014975529025098522,1,0,0,0,0,0,52.3384286471851,4.9485103958884595,6.336156488232315,4.053158616559732,243.91390440093193,3.7900919914245605,2.5,0.3733671629197992,-0.14657818557360094,0.03411213778949493,-0.15499778418683163,-0.037967767592158246,-0.07309239168847845,-0.023622019077883864
93.0,-0.20576035763466463,7.192012448647353,7.1032323391493675,0.0009685233689217618,-0.01601305622934224,-0.027996229698038014,0.29127905109272595,0.07671898291576437,0.16229797034401028,1,0,0,0,0,0,52.33842101747278,4.94848354658038,6.229487696888685,4.064672963424985,244.23772248400576,3.7900919914245605,2.5,0.3788164047833657,-0.13400825758767376,0.05051178946282306,-0.05146468231380822,0.014090511178775567,-0.050884641820000895,-0.026322643928027013
93.5,-0.05652669616180464,7.1126207731511375,7.500134031927234,-0.006431269369636748,0.005300310934919589,0.03182896393135309,0.02650243392689422,0.0997495999223103,-0.0124830964412663,1,0,0,0,0,0,52.338413387969595,4.948456477033267,6.104518423871225,4.075151801988352,244.61229674916694,3.7900919914245605,2.5,0.35792161227744784,-0.1413091844189328,-0.08392630958745,-0.057725667672025124,-0.01921205458922802,-0.16713932806020515,0.0035857809212148173
94.0,-0.020929636348265515,7.134983304276196,7.5265245822532565,-0.0023509109293881223,-0.014457317413321045,0.004878157554536907,0.04811223923581348,0.028202526727450994,0.02590681427149684,1,0,0,0,0,0,52.33840575853791,4.94842901620831,6.040674549713377,4.08530342148834,245.0038048019595,3.7900919914245605,2.5,0.36199527816667393,-0.1394334098793932,-0.04568473741030954,-0.03304763463723457,0.027810548320298153,-0.13099098014377347,-0.01902836027011687
94.5,-0.223498878822129,6.991656169426679,7.226888803062874,0.020841886686736987,0.02127730234705878,0.06580438663463085,0.10680603614630405,-0.0882874055814163,0.08380957832085775,1,0,0,0,0,0,52.338398129130674,4.948401742758833,5.99429463911499,4.095351211232261,245.40097603146037,3.7900919914245605,2.5,0.3634514891139497,-0.1239592562970047,-0.06470989697988727,0.039888538511889525,0.057951118509593294,-0.03192798158418359,0.02068682177126757
95.0,-0.4913817464810923,7.099296650967433,7.061466805753623,-0.015949692609500587,-0.023264041316151934,-0.06075660864997863,0.206595875692416,-0.0556934029635381,0.020056280237951724,1,0,0,0,0,0,52.3383904997318,4.948374213945279,5.931847911326194,4.074600531562634,245.5668641825951,3.7900919914245605,2.5,0.35552648048609564,-0.13286721219712652,0.027122231931315414,-0.026677329063165667,-0.043029018891839896,0.0024364964148853754,-0.007343374346045178
95.5,-1.129547043120892,6.8893459140827025,6.776344537493731,0.009078930551797662,0.006697400264917438,0.10198734535760458,-0.10161290565316722,0.1278502683196009,-0.07378487651143152,1,0,0,0,0,0,52.338382870335785,4.948346599983888,5.864810689446529,4.044107885730269,245.65555319431127,3.7900919914245605,2.5,0.3246943714530819,-0.12516258258256688,-0.09341797303110524,-0.003717468301247307,-0.2704924433921197,0.014342599857259485,0.11393056882417606
96.0,-1.4325231638580833,6.797642007792872,6.631479873954336,0.014200807422642467,0.013921852689304005,-0.007373288882206619,0.1231324263639759,0.11595744528481265,0.08580945460908075,1,0,0,0,0,0,52.33837524094074,4.948319911157051,5.762347197080458,4.017370423480801,245.31876491931183,3.7900919914245605,2.5,0.33608292053513455,-0.113863475499686,0.041056323602405256,0.06048102406161201,-0.2673410417049735,0.09676601955931553,0.10815890013162044
96.5,-0.9543724599952368,6.9029331720021805,6.642009248809443,0.0022235177994579854,0.04247816374550545,0.02972838196641258,-0.09144862643282967,-0.19021455825590705,0.2492542510587905,1,0,0,0,0,0,52.33836761154604,4.948293212962322,5.649761968504773,3.9918207758239426,244.83994958992682,3.7900919914245605,2.5,0.3509065405953712,-0.0991989107817902,-0.10013744073241546,0.11629565220622079,-0.01601598440886986,0.2050038947128759,0.10178622932323216
97.0,-0.7730810967230188,6.9882746992478,6.729283818164067,0.006601875835441509,0.01255514978395866,-0.021523951172190282,-0.050379085367748246,-0.14320343983709435,0.19699203799111595,1,0,0,0,0,0,52.33835998215145,4.94826682948599,5.668757972281745,3.9803205702725974,244.0472371879536,3.7900919914245605,2.5,0.3573581401488378,-0.10935162192006953,-0.034060143354968306,0.06942311664617769,-0.010291285373796637,0.1479312789490466,0.06286337682810791
97.5,-0.6416405485633322,7.103143073242535,6.706885794373491,0.007493765958873452,-0.0024702973627125265,-0.06547387022037504,0.20260258394465905,-0.13904107471871333,0.2205989357515434,1,0,0,0,0,0,52.3383523527569,4.948240233106424,5.7253487488605215,3.9732645534249493,243.1497465903272,3.7900919914245605,2.5,0.3715715357652717,-0.11391760691208332,0.06010893073826702,0.03382910056865542,0.029202303907991868,0.13992050172646167,0.026228567239053265
98.0,-0.5792376764568764,7.153316169849773,6.6955058267540855,0.008015497283828266,0.0047976077696568285,-0.004855852829236909,0.18799591375290683,-0.25928688673072187,0.2731342515194649,1,0,0,0,0,0,52.33834221300037,4.948214519263032,5.73674634693526,3.967614129664717,242.7502156299333,3.7900919914245605,2.5,0.37844975058847863,-0.10420754209180105,0.007703390329451898,0.06467856340230138,0.10123957374721404,0.20163351849047112,0.037170251540058895
98.5,-0.5864983319851612,7.0289419414065994,6.70785094195979,-0.029392553665079455,-0.020343014061351236,0.004423390646849193,0.08611225238124234,-0.25878441297209265,0.2944293644689729,1,0,0,0,0,0,52.338333725253655,4.948188781847872,5.735231678914493,3.962408476726496,242.5169085302863,3.7900919914245605,2.5,0.37422783752091626,-0.10180517696645755,-0.05082315865623867,0.07338224100834867,0.0806371374211294,0.20085930579991912,0.038615967001320986
99.0,-0.428603280950442,7.119692937783832,6.774065917231722,0.016451968430722847,-0.016877889317525027,0.009966900961382738,0.21540256896582344,-0.14065194404545528,0.29423287608181425,1,0,0,0,0,0,52.3383258023682,4.948162718731015,5.8178968311445,3.9778539285100485,242.83872941945037,3.7900919914245605,2.5,0.3808426614760898,-0.11032197097517535,0.03966196553366891,0.04720913311968554,0.09388667168521274,0.13088403871260082,0.017205088160228626
99.5,-0.5507076044123675,7.285439831126351,6.668489119402493,0.009928099587408822,-0.05658060711988899,-0.08449739887292743,0.11129472002352502,-0.11835111738820898,0.2510639408358928,1,0,0,0,0,0,52.33831807262218,4.9481362291711575,5.924612888448913,3.999831925831639,243.34586886347938,3.7900919914245605,2.5,0.3791331883885075,-0.11809019754694547,0.09757223355770578,-0.003164389921067778,0.037119920057554566,0.16220915669892808,-0.017796244867443845
100.0,-0.8171189186517563,7.41386528856902,6.670553232774056,0.029600554854714134,-0.03000609942680911,0.028233865216600637,0.05782945538121669,-0.14008371588269183,0.5169358944099682,1,0,0,0,0,0,52.3383104089151,4.948110233103412,6.005155367381478,3.9623440229526925,244.24794793463064,3.7900919914245605,2.5,0.3852974338068297,-0.09281316762423064,0.04580373316607866,0.0863615426521875,0.078053995253179,0.3006957892532864,0.031527103940348716
100.5,-0.935211424399462,7.35028722908723,6.784042430706228,-0.021397471557104135,0.00495998408377972,0.00531854031489775,-0.03211498509055657,-0.2622988042874108,0.313237779784901,1,0,0,0,0,0,52.33830276778829,4.948084083742208,6.078219381365684,3.9060465896620684,245.281879993339,3.7900919914245605,2.5,0.3699147664862653,-0.08449217373020962,-0.08065847287384337,0.06781940772927408,0.017990139862923152,0.28837487740497475,0.05535747105870572
101.0,-0.7366172651505634,7.151531869800168,6.889287308473114,-0.01245403680845077,-0.0008079888463156815,0.03469801283302766,-0.1594920708390043,-0.22621975259103905,0.34566535392357434,1,0,0,0,0,0,52.33829513438222,4.948057883267291,6.066423449196947,3.8745650780062775,245.82689080129518,3.7900919914245605,2.5,0.3701664307604468,-0.0803167893097456,-0.11219319469967048,0.1058004712522253,0.050729681502977526,0.22880959977332604,0.05014538107297453
101.5,-0.5359126638344626,7.033620536829901,7.080301655745152,-0.019925530679475806,0.03643893037784565,0.04451062651472898,-0.10458828122474406,-0.16301830586269722,0.24719569434591432,1,0,0,0,0,0,52.33828750361605,4.948031983591166,6.030381610132818,3.85093333595686,246.20867470608195,3.7900919914245605,2.5,0.3616030292403665,-0.08582618833727003,-0.15449395275546338,0.08174607403776088,0.0436528990598611,0.10774950837825428,0.05950935911347912
102.0,-0.40964595108919344,6.8394342481819805,6.928635211739064,0.030436231046897674,0.00046850324913693536,0.008552848387545962,-0.07780887159239866,-0.32723836056725564,0.4996783818079809,1,0,0,0,0,0,52.33827987375252,4.9480061842124945,6.010452888277147,3.8639688819215015,245.96974055834892,3.7900919914245605,2.5,0.39378182017013147,-0.06638985380526512,-0.031813449422733134,0.22625622542115292,0.21878961391163979,0.22159615719392986,0.010590916221940644
102.5,-0.3496994152821991,6.754616059490813,6.851576662383208,-0.008738570787222032,0.040458574806072956,0.03805287299257583,0.032128130839946464,-0.43494870085540616,0.332700713084602,1,0,0,0,0,0,52.338272244197626,4.947980736118704,5.995127889016581,3.8886029425583297,245.52358173876672,3.7900919914245605,2.5,0.38393375469265817,-0.06955582970395087,-0.1320357106389897,0.18757014472235428,0.21093244038099102,0.19648184198309407,0.03593707763880105
103.0,-0.5355239680659009,6.92770343889433,6.592752436073978,-0.026415968074093882,0.033038858775813834,-0.02819821196274455,-0.02745569272496269,-0.3725191609499132,0.19192324371297925,1,0,0,0,0,0,52.338267125110264,4.947960808470257,6.0542427324495085,3.9123476980519563,244.93052388922624,3.7900919914245605,2.5,0.37315362292755877,-0.08460604650700228,-0.12078551402377395,0.08349726549452112,0.09752610815964954,0.20178801388186407,0.03738840887396742
103.5,-0.48072203640109495,6.97682393397528,6.648934561741912,-0.003733384845560614,-0.04551980207228955,-0.0863637961381126,0.2623918445139743,-0.4727367022191825,0.3998115055343289,1,0,0,0,0,0,52.338262864411156,4.947943039384647,6.1346263266435415,3.9358111544817533,244.2884368542594,3.7900919914245605,2.5,0.40776914993504926,-0.0746319937363364,0.07623739908029271,0.16082940804079193,0.21680314873814732,0.295087994941315,-0.041893362961810655
104.0,0.11974937382686007,6.507357752909795,6.037795772582344,0.0331162108623982,-0.013631241075032434,0.009353834659539498,0.24916579500275968,-0.5925836933409935,0.4901523466777652,1,0,0,0,0,0,52.33825638685331,4.947925672201796,6.221086332935548,3.9591856322702856,243.6299722256262,3.7900919914245605,2.5,0.42816314612291756,-0.06700855527039641,0.014926076886410948,0.2138743640289261,0.4090005955972083,0.27985982419290706,-0.04969660091127685
104.5,0.40482989989492435,6.302300684220817,5.727288930700825,0.01355918837802881,-0.025970454518567995,0.07052657734442652,0.04293355909102867,-0.6591238697137614,0.16934411352389656,1,0,0,0,0,0,52.338249151298996,4.947902717872246,6.161955110793184,3.9939268950380065,243.61000970368778,3.7900919914245605,2.5,0.4070335477944216,-0.08446995778858894,-0.11563927321076276,0.1278530703423771,0.3707967981783474,0.19267440496055296,-0.04444807803943665
105.0,0.3572473059912688,6.551605300711649,5.630823257694135,-0.029881578129422846,0.03926237901402353,-0.04280478038674171,0.1702102339424497,-0.3657101351452614,-0.29735190496050584,1,0,0,0,0,0,52.33824165656775,4.947877582739158,6.061226962915453,4.032263460315665,243.80318838023248,3.7900919914245605,2.5,0.36054341893046493,-0.13536471253800134,-0.13344461183623027,-0.14984060602940874,0.11618627991476477,-0.03372982656061331,-0.018504730192823088
105.5,-0.21214690295721345,6.798668061098457,5.997614313186012,0.006726476830069619,0.04066189160405595,0.055402404288845186,-0.11861729269909596,-0.5098190072556327,0.00955997451788021,1,0,0,0,0,0,52.338229052493794,4.947834556977567,6.055211224029269,3.9965316417750225,243.86767727989084,3.7900919914245605,2.5,0.37248806943860896,-0.09557013381524153,-0.180453181284463,0.036391510076384775,0.15985112694291745,0.2031072768602821,0.04114888314858447
106.0,0.21816344487465178,7.210986013191901,6.709215618234695,0.020780053285519726,-0.0025639542908834634,-0.0679418032009919,0.2710352381296669,-0.5634803633196152,0.5414266756681303,1,0,0,0,0,0,52.338219722138646,4.94780304712801,6.054803074747024,3.995484400455744,244.02244769767876,3.7900919914245605,2.5,0.4207774740938659,-0.08427795885657326,0.0436615349930575,0.13726361116029898,0.45454491483228754,0.27761598174976454,-0.07235633914579165
106.5,0.591843821648735,7.734265010185943,6.99007647911047,-0.011759098152086131,-0.03162638079162232,-0.03585889620016066,0.12149560284996247,-0.438909954394445,0.49573929152541313,1,0,0,0,0,0,52.33820900078343,4.947775694951831,6.055997425759211,4.005408678975499,244.20734665872834,3.7900919914245605,2.5,0.40681762702414503,-0.11094753182595621,-0.03295884466585416,-0.020259936101770046,0.45599653136323165,0.20248664289049,-0.09571855785209392
107.0,0.7692527649848162,7.962826856721039,7.132776010649927,0.017334487635167345,-0.02184876677508833,-0.035976349138527194,0.23432815301126347,-0.4358994104800073,0.5262673041084325,1,0,0,0,0,0,52.33820031417437,4.947749411255872,6.108875678269699,3.9914554653161742,244.06921860170283,3.7900919914245605,2.5,0.41805472645568564,-0.11286384388101377,0.02133334705643497,-0.039838105344431655,0.5212995818099138,0.1906995470906589,-0.11562916162328457
107.5,0.10389067357102555,7.423528758723595,6.959092553251092,0.008864723124559753,0.028054020485407356,0.01666245362542855,0.18539006861052404,-0.43972796619749477,0.47257046041881834,1,0,0,0,0,0,52.33819232329317,4.947723801672769,6.176521019615928,3.969949808799603,243.82325433144618,3.7900919914245605,2.5,0.40782310796261023,-0.08586239521054309,-0.056851082569587874,0.0821371487170964,0.36387615441412935,0.22780695161123224,-0.024082828505325442
108.0,-0.16530726956960262,7.3290370272811565,6.893859498961048,0.00479075696223226,-0.04651290688585451,-0.009980244192313317,0.20446337388238336,-0.2546544739170406,0.45466345828955773,1,0,0,0,0,0,52.33818457029779,4.947698416863847,6.195590321068895,3.925544470203196,244.27408177603138,3.7900919914245605,2.5,0.4012698818519222,-0.0895189727522186,0.043057810094276734,0.06278564773815876,0.22177488117554472,0.19759878721500307,-0.04250199722204125
108.5,-0.13111019653843176,7.726059560285187,6.706165460766155,0.0060141898213575485,0.0006718191904460172,0.0344739309428529,-0.08622566452407063,-0.36488030078108413,0.46468898783033535,1,0,0,0,0,0,52.33817689864121,4.94767278916096,6.2007808298870035,3.87389565710279,244.9575194226582,3.7900919914245605,2.5,0.3928674118422337,-0.08557146535590426,-0.09400781909684405,0.007478388862637994,0.2704101259529813,0.30171291734306666,-0.005963768340331962
109.0,0.14575483879530243,8.277460734424782,6.565072431458967,-0.015285133368808813,0.02193911067001114,0.017819622808407126,-0.2097717405064935,-0.29477374948081164,0.1356200264243193,1,0,0,0,0,0,52.338169254796284,4.94764771615223,6.138464575946322,3.8097004276287088,245.58536734007424,3.7900919914245605,2.5,0.3640889688339586,-0.11870292671468677,-0.17699960909738977,-0.2416911825977406,0.19758296348825902,0.21339839404659497,-0.0059258461306789835
109.5,0.05433700475854154,8.069094997799459,6.521694630945962,0.01590306989537056,-0.002043288660108531,0.03758688597019492,-0.10351690480470536,-0.18008713500704368,0.3297670931711634,1,0,0,0,0,0,52.33816413082282,4.947622510257068,6.056861121589512,3.7415365995163397,246.19466788526967,3.7900919914245605,2.5,0.37202077489499585,-0.10658929783037455,-0.07740040214244438,-0.16238058563802737,0.20499231203887525,0.21886755888878395,-0.008907415794174879
110.0,-0.20957070230884384,7.487835807837855,6.660797542939991,-0.009562516415088578,0.018678359294407792,0.018263080722768808,-0.11833757761143104,-0.21173780858476496,0.26934809327339615,1,0,0,0,0,0,52.33815735809104,4.947598213578642,6.057768335264932,3.702883240468418,245.93175413993308,3.7900919914245605,2.5,0.36928987629757754,-0.08615408180154445,-0.12166470094586977,-0.04521753339226026,0.13233484451127558,0.1730179819096429,0.023930310394946
110.5,0.03416484086229976,7.275659329870822,6.3483336196561355,0.0045384836992657576,0.05596540498843516,0.013455833314188727,-0.10503574045151223,-0.1603621609397776,0.2595284070504769,1,0,0,0,0,0,52.33815002160977,4.947574220066735,6.082249555989144,3.6735645989180976,245.3776688177497,3.7900919914245605,2.5,0.3731501454054751,-0.08869284367385737,-0.1321821161801676,-0.06665691404749384,0.16321198064834763,0.10927370645358583,0.028555199427424214
111.0,0.812876082230671,7.277016496528251,5.91096258877345,0.009042761650909354,0.003635362655934976,-0.035861892798837544,0.07020699887675216,-0.2601548009035602,0.397158523045553,1,0,0,0,0,0,52.338142492369215,4.94755000979977,6.1337610855090325,3.6745459309151247,244.99284540002026,3.7900919914245605,2.5,0.40157679221166437,-0.09881475318219095,-0.04136764848447821,-0.11869031931446301,0.38956686310951366,0.1108585502700336,-0.07444467249898433
111.5,0.8714249248389865,7.21612181817943,5.843235122972936,0.0013406894991361776,-0.06867073253818586,-0.02113787924907083,-0.07552076381142286,-0.09168152851020589,0.19438530639358154,1,0,0,0,0,0,52.3381348972197,4.947526045100644,6.192995518160912,3.685111711195217,244.66452673823775,3.7900919914245605,2.5,0.38815634595966714,-0.11903315408929468,-0.03190746083849938,-0.2114262740238171,0.25701019523479285,-0.0022140903953511643,-0.09698234665251342
112.0,0.33095823054685225,7.2179597650575795,6.2751534822743045,0.0020344651315900458,-0.016985097910186535,-0.014329654403295495,0.11900099184966212,0.0033374863973851393,0.10030606738093992,1,0,0,0,0,0,52.338127279534355,4.947502162282925,6.2888553450688995,3.681616947988618,244.4883029800401,3.7900919914245605,2.5,0.3806537147951654,-0.10945278107284087,-0.014621975461623079,-0.17448095938180885,0.10533214690110775,-0.03877842114449685,-0.04034763260082655
112.5,-0.10645686306463242,7.098752790405888,6.688879018413174,0.009977023428923608,-0.025239855469793022,-0.03547736440116235,0.04217858428368815,-0.06693406000331797,0.2458698145526342,1,0,0,0,0,0,52.33811965414347,4.9474779889255,6.395179513104065,3.673674647567172,244.3628632773162,3.7900919914245605,2.5,0.3943399327154853,-0.0805207801521809,0.012676124364041625,-0.01429479731404633,0.09022533728683022,0.04829897425782674,-0.026191557136075776
113.0,-0.2282219955290055,6.971821785169085,7.079648188753798,-0.00037163586096404695,0.006970921006819855,0.08801775409909804,-0.17283907267701193,-0.1333774629961162,0.31863666342193064,1,0,0,0,0,0,52.33811202611788,4.94745403653338,6.486684932111827,3.6506518113498303,244.5541409896337,3.7900919914245605,2.5,0.39300691878674576,-0.05618643831562262,-0.1486779404617609,0.09501545125364648,0.10427414770268376,0.07099236679773843,0.030343124816488206
113.5,-0.2860313556890722,6.916379879214258,7.278189834513167,-0.007489018814760401,0.1045417699542333,0.08240198065906969,-0.2224373519040873,-0.13325714997151988,0.12088868860853047,1,0,0,0,0,0,52.33810439719142,4.947430157819273,6.573956445982175,3.622858637758627,244.85115874331694,3.7900919914245605,2.5,0.3798724385928477,-0.053421908476884494,-0.25877423705422054,0.07456869207708827,0.044149386178144866,-0.01648131156831107,0.08211901800710043
114.0,-0.38502072599017945,6.987544689513054,7.050336161032186,0.04014788749643656,-0.08631160888559743,-0.2025484981260649,0.08152569345855348,-0.04695958071868675,0.23101165034911048,1,0,0,0,0,0,52.33809927831893,4.947411071302107,6.6095027214310145,3.6322990770719334,244.7282591042055,3.7900919914245605,2.5,0.414897441117523,-0.06657610809137932,0.21839911354282052,0.07091528711093543,0.03208394293845311,0.03719341655724995,-0.09307748144133104
114.5,-0.43745262767789905,7.040763902224469,6.955167370308763,0.0008923140272656255,-0.014374350098579153,0.07347885287010458,-0.01268398096568385,-0.15796383817804854,0.2983626514852489,1,0,0,0,0,0,52.33809501769329,4.947393900522801,6.6302700975592215,3.6535168411574603,244.46516814199725,3.7900919914245605,2.5,0.3995833065618222,-0.05157956783484624,-0.0815014564074588,0.08773551191913505,0.06482056377628241,0.12393045282771162,0.019257473827241006
115.0,0.3170298208954435,6.693738006360206,7.3844435912293624,0.018913702817110502,-0.008742630486328066,-0.08120316783243003,0.10015239033284765,-0.1096300505134298,0.2605591010340194,1,0,0,0,0,0,52.33808854016057,4.947377368521416,6.646814954118249,3.6784599299621457,244.15528723029934,3.7900919914245605,2.5,0.41970308972371007,-0.06482691631435471,0.027331927981111656,0.10885827329371577,0.20468081367429414,-0.10797433155947836,-0.07464839200572762
115.5,0.8320150057996814,6.432393946668536,7.620500509411276,-0.009961263599935335,-0.062369281951653366,0.06166481037900187,-0.10526041252330162,-0.14424275630570857,0.14772143194844417,1,0,0,0,0,0,52.33807879425285,4.947338482730403,6.521109752129232,3.6863497612348173,244.45154545918368,3.7900919914245605,2.5,0.40704747716022216,-0.07212435671488279,-0.12318750987006011,0.10887250352022343,0.2582982844085291,-0.2280411332047003,-0.08651626843991761
116.0,0.6754955302394433,6.575915966077714,7.551014531703279,0.016561490680078537,0.06188233617036207,0.07778554780628061,-0.0934620795206191,-0.19141049298017077,0.3124080566297951,1,0,0,0,0,0,52.33807044117237,4.9473093068262886,6.464555597410992,3.685426908338789,244.45051388814733,3.7900919914245605,2.5,0.40845901425460146,-0.05864292911759125,-0.18570943265040543,0.1558999004440665,0.32519314957133444,-0.1425430425252275,-0.015383735351474805
116.5,0.06563081983323327,7.009752063071207,7.0292818538310815,-0.0023847490393755985,0.043996183395771236,-0.021061009763152144,-0.11305143737032224,-0.019189274576647375,0.06800692433001726,1,0,0,0,0,0,52.33806256433249,4.947283050715918,6.427758776713049,3.681716649044084,244.35024813262817,3.7900919914245605,2.5,0.3783702484224558,-0.08511957160462565,-0.11843644461397795,-0.04124784349980206,0.05682989325659705,-0.0944426708161515,0.00890073872004187
117.0,-0.051193226792471194,7.026104832726332,6.943616765279496,0.0153373251270565,0.0026397916942424507,-0.051084628172129894,0.1795424112790508,0.031112346179220186,0.07588153860561259,1,0,0,0,0,0,52.338054850330536,4.947257450330872,6.427363282305943,3.72498255481061,244.21684483247702,3.7900919914245605,2.5,0.3853392294427641,-0.09158821631201967,0.03325291264754347,-0.04809557858094265,0.028772003986685335,-0.08726837115434571,-0.02308880425968825
117.5,0.02973778691455632,6.980857000881587,6.815636810823083,0.005934494978053253,0.028550553024540935,0.023855962674151472,0.061713248908808485,-0.17437432087523852,0.3610940572661183,1,0,0,0,0,0,52.33804719200673,4.947231750746925,6.437368109957498,3.7831078103908644,244.07238938009706,3.7900919914245605,2.5,0.3990184966160258,-0.07093230409987325,-0.07722027759324573,0.062203230068296464,0.1969305643341699,0.06906574247301878,-0.0016196808049674279
118.0,-0.16296538648165393,6.997244505474732,6.747405413830875,-0.003791418711192776,-0.004423635574711645,0.03904504063131979,-0.17536684849626277,-0.05406414316056339,0.17770129642599372,1,0,0,0,0,0,52.33803955272059,4.9472063359283895,6.390289735871716,3.8014936030567257,243.6244598968164,3.7900919914245605,2.5,0.37771587418602454,-0.08577236465056035,-0.11706023751839513,-0.006976132324678967,0.042981894389463524,0.02176873922417313,0.01906614656872255
118.5,-0.05524994612242941,7.052547482497269,6.829622319499219,0.007095865344513074,-0.016148165117818976,-0.07095233473064616,0.40276092009747616,-0.04590606491909253,0.21878338317740462,1,0,0,0,0,0,52.338029409581885,4.947180698219188,6.326901964774831,3.807309274206512,243.07523174523794,3.7900919914245605,2.5,0.39686880778713624,-0.09270297696025057,0.1027127742853562,-0.019616308924882236,0.10187133787674768,-0.008895661104655147,-0.04158860040851783
119.0,-0.3311938337433315,7.159955568134446,6.733676522294772,0.00228773527924777,-0.04332208049369991,-0.02783726872140422,0.28886439650298,0.012770376352873772,0.09959134105181276,1,0,0,0,0,0,52.33802343104073,4.947155304031983,6.328784076071273,3.795475127939487,243.5247418967128,3.7900919914245605,2.5,0.3801950131715075,-0.09711651410003806,0.07691860762849927,-0.06712300809218746,-0.021462745403219876,0.008210315118090405,-0.018180424110690523
119.5,-0.6153428493142512,6.928981383485833,6.837860683774359,-0.0022471972362647892,-0.02089827822904774,-0.008478233278368958,0.3608273191406708,-0.08972209350725592,0.25377451091168696,1,0,0,0,0,0,52.33801636611204,4.9471296732020305,6.349314623202111,3.7780581092983736,244.30766117678604,3.7900919914245605,2.5,0.3871608191305692,-0.06985910891055049,0.06398686267217263,0.06977461550435161,0.006229626095438095,0.09412689819403809,0.008431550287432296
120.0,-0.7502457763494094,6.8280946931189614,6.890794478075958,-0.0017675894390618934,-0.045584356863580824,-0.0005324703792434562,0.19841928829955233,-0.07589353562643955,0.1883411385656316,1,0,0,0,0,0,52.33800892972174,4.947103963466624,6.337680159140517,3.810151687227134,244.9354187278773,3.7900919914245605,2.5,0.37727411996569893,-0.070728871592478,0.04543385067553851,0.09007334853778001,-0.05428080507855861,0.08598595857476568,0.012600551706036694
120.5,-0.572420514476572,6.967513211770709,6.889085799294586,-0.0011751786582498583,0.03872418889522991,0.12735705939139877,-0.10407474820455623,-0.21692845204234484,0.3419756676724742,1,0,0,0,0,0,52.33800136631992,4.947077909579222,6.316855742142896,3.857906126415076,245.51137858912978,3.7900919914245605,2.5,0.37193045092594706,-0.059997631077658285,-0.17672603214276142,0.13299206053989562,0.08063897194660473,0.17246843438324172,0.07536974826797571
121.0,-0.285148129831675,7.095658143132037,6.853964661629748,0.01787756626894236,0.053186685400770005,-0.07722609070228978,0.30566600610276573,-0.11394456669349601,0.2902333306157002,1,0,0,0,0,0,52.33799375948986,4.947051740938804,6.3394215468949096,3.8627561198029468,245.8701938743411,3.7900919914245605,2.5,0.3836833097125571,-0.0816879663768391,0.04425753419147222,0.037817567822074315,0.1141680313691966,0.06526350760581799,-0.005002878567243107
121.5,-0.7858987349443256,6.9041649016324635,6.712556753118197,0.0012082231985310783,-0.04264508305322145,0.07533279656050909,-0.10805694435466356,-0.2816693726524193,0.3335598149729022,1,0,0,0,0,0,52.33798613781065,4.9470252161934845,6.37438483065723,3.8540348654251257,246.15651971596506,3.7900919914245605,2.5,0.3776664017061112,-0.05386352025710517,-0.07532619321730948,0.1620910529454361,0.0447238352042854,0.25109415177145006,0.0320029483507502
122.0,-1.1138427374394184,6.778341005014103,6.557726236238823,0.004635151737962131,0.04706131159179131,0.04465462168015881,0.20365127918239773,-0.05762127238286749,0.23196491323116053,1,0,0,0,0,0,52.337978511054175,4.946999526235602,6.38348430122617,3.8170919151682203,245.81908757354606,3.7900919914245605,2.5,0.36447006855469194,-0.059130606528677035,-0.03325265556565198,0.10770719662835503,-0.11215828081468257,0.15328684524816497,0.09232467721896001
122.5,-1.0332901627803148,6.921152798544907,6.4601090178253,0.0036583456933996653,-0.008817758982002766,-0.10974062644246711,0.25727714524394274,0.05062735621295332,0.09668016816517899,1,0,0,0,0,0,52.337970882561656,4.946973796784755,6.385194151298125,3.7712220665444693,245.273436267846,3.7900919914245605,2.5,0.3663099844781039,-0.0786950934161182,0.11466184391264181,-0.002501765435091064,-0.1791063029487211,0.08614818261110566,0.026950259291491897
123.0,-0.8378523053193171,6.9377105134061745,6.677473381430973,-0.006591009230994499,-0.008279984356149434,0.087248915434736,-0.003310388110376594,-0.07615196497109468,0.138753310702301,1,0,0,0,0,0,52.33796325347554,4.9469486898494885,6.383266810530905,3.7396205902019712,244.79150699472032,3.7900919914245605,2.5,0.36531492868039694,-0.06365722040466586,-0.08701184649346506,0.04849541913341451,-0.09537265387409435,0.11943077208798704,0.06977462343752384
123.5,-0.4489944353707284,7.122969620270877,6.7356787106615545,0.013078587360948895,0.05407375737396003,-0.045744864160403034,0.17608048196595047,0.06571607871815614,0.09508860670557806,1,0,0,0,0,0,52.33795562418647,4.946923472641963,6.38030061866334,3.7125325530942734,244.33085006820258,3.7900919914245605,2.5,0.370771989104778,-0.08405579776210842,0.0028508647354013256,-0.0581960500976202,-0.05286424477042431,-0.01770962666289783,0.03742422951258942
124.0,-0.5036437185058963,7.150352056640221,6.668348584830529,0.01936068244823562,-0.0182762477759299,-0.0562560520227255,0.18049742241812433,0.01593382197388097,0.026752062226557183,1,0,0,0,0,0,52.337947994828,4.9468985365075815,6.39347286422527,3.741567059047878,243.94390536489254,3.7900919914245605,2.5,0.37518952958963603,-0.08796665209098398,0.0742052948835682,-0.06384870616172807,-0.07353422311999058,0.014759601139144823,0.0009352396336271765
124.5,-0.5295890776354872,7.16231236893091,6.63413955554599,0.012486089866501907,-0.017301896001381944,-0.01340172160635518,0.42843536128224624,0.04506432421421613,0.15943420053647323,1,0,0,0,0,0,52.337940365445796,4.946873376251394,6.411255726092891,3.7883537100145057,243.58156803673936,3.7900919914245605,2.5,0.38161267771440094,-0.08696516480691865,0.10490768468925192,-0.04932737440490002,-0.04623827599154456,0.0414678082065601,0.004750399104002515
125.0,-0.7900942656060644,7.135226505515393,6.720223922790151,-0.012768580520544484,-0.01017276111778782,0.05176870540126918,-0.09983204363278741,0.024001284211766515,0.10908043624234043,1,0,0,0,0,0,52.33793273605548,4.946854180262655,6.4872999177075865,3.7894792304656693,243.61605115241372,3.7900919914245605,2.5,0.3642159614458228,-0.07737617015615107,-0.09008343716597463,-0.023128125426174508,-0.13489350176553186,0.08218407517358248,0.06295693518346901
125.5,-0.3282902002502414,7.102304867990733,6.810426567543567,0.001901465845214407,-0.03435883275318753,-0.004125967433541149,0.2490087779905064,-0.012344293200307829,0.14820910598371692,1,0,0,0,0,0,52.337927617024384,4.946836972981474,6.579989771896479,3.7761615270520013,243.78300496434767,3.7900919914245605,2.5,0.38806341961720736,-0.08025416242831729,0.04341793923002406,-0.02799681775082702,-0.003234159936643064,0.018031018302147383,-0.016582899852989847
126.0,0.019621790438044517,6.81266397806232,7.401391702020982,-0.0069539034840430895,0.06390052841720645,0.07141834748881737,-0.09998354375164381,0.06642953637674323,0.007664676562112782,1,0,0,0,0,0,52.33792335634452,4.946820428809013,6.6774358442658075,3.758275239521937,243.99418151137615,3.7900919914245605,2.5,0.3736814762439398,-0.0772623730863187,-0.19055578043816981,0.0002628343343086099,-0.004221892923377557,-0.19377819988555156,0.039315228930528134
126.5,0.1847969039262146,6.686152390526043,7.7016487317228846,0.005002433780125472,-0.02608653144805409,-0.048371894141327546,0.049746303709307854,-0.01960993302979272,0.04596834282875205,1,0,0,0,0,0,52.337911858069255,4.946782174643708,6.747792661589525,3.7321069877115645,244.53099538802542,3.7900919914245605,2.5,0.3983972080271189,-0.06955561108146045,-0.008000011602209403,0.07247429198592573,0.0728126316556066,-0.20633279195148194,-0.062323754710511596
127.0,-0.1985339991035803,6.713370770512738,7.495841070689043,0.0070869478899173634,-0.05283944372548195,0.0043083976786255085,0.047384225322217435,-0.06627526956937208,0.13592374478417363,1,0,0,0,0,0,52.33790290581285,4.946753209346987,6.844520354822456,3.7204111094256187,244.84343203969547,3.7900919914245605,2.5,0.4013670640798367,-0.05352538242606201,-0.00045747515035213606,0.11928548161927838,0.030847820957406423,-0.07570259046598109,-0.04176829905128624
127.5,-0.28362510258634105,7.173897859070254,7.049038709860374,0.001776238532314265,0.058572858250529464,0.08258004399351043,-0.11731467696134888,0.24372921863130687,-0.04477174294790451,1,0,0,0,0,0,52.33789482410053,4.946727023460918,6.948782542821691,3.7132931986853275,245.08096477025936,3.7900919914245605,2.5,0.36330013728940513,-0.08336212012531936,-0.16371679449608642,-0.12343092909493902,-0.1506309462687168,-0.16002983158849332,0.05390915478029955
128.0,-0.310763820195191,7.263430237130791,7.103026311489194,0.0013660133988653538,-0.025021199941392125,-0.09184809678800313,0.3172316488698105,-0.004926716616009685,0.16231922470677776,1,0,0,0,0,0,52.33788955040985,4.946707803331206,6.939381266496123,3.711041708695672,245.16026039802168,3.7900919914245605,2.5,0.40145997460575056,-0.06817581527073896,0.09645246972580673,-0.03167653340988241,0.005272852318992594,-0.000296132240422849,-0.05642753016941137
128.5,-0.4897033122255703,7.431710740033852,7.141020674213339,0.0020228032040782934,0.026600913295003012,0.029424189088469874,-0.10961902088707881,-0.08860304917704645,0.13253316160799053,1,0,0,0,0,0,52.33788272648621,4.946690588000531,6.897504892262409,3.710329532418324,245.1867316829149,3.7900919914245605,2.5,0.3841828776747845,-0.05911154889772444,-0.11335625885518484,-0.01654151401069252,-0.013824825478443511,0.07638676266415248,0.025582990559307954
129.0,-0.43131844276036885,7.401712516788823,7.087787104897381,0.012195820655373488,-0.028121976702803253,-0.01409745040119574,-0.004651692390580997,0.00685479423472693,0.13756654965609624,1,0,0,0,0,0,52.33787788286323,4.94667404114407,6.846349969372728,3.710104261574417,245.1955686004559,3.7900919914245605,2.5,0.38706408753109256,-0.0690978946335249,0.002681129679528428,-0.040479460959681524,-0.03521617626524629,0.03785128320746312,-0.016247407265055788
129.5,-0.41758142941514453,7.1681988053358054,6.992440202962904,0.003644633651352345,-0.008893666158256448,0.006926334618331826,0.05754573268599044,-0.04163448065010539,0.12021458909886035,1,0,0,0,0,0,52.33786618526592,4.946637375293809,6.8374986497115255,3.6553381233007443,245.2651396653254,3.7900919914245605,2.5,0.3878558852470586,-0.058211925488459694,-0.029197862224173567,-0.007201119996991953,-0.024078519073731767,0.028380374099836514,-0.001313129288248437
130.0,-0.3939673125124645,7.316026486384724,6.744952264934013,-0.005456248035417947,0.001139585299238778,-0.013488296999648729,-0.031661089481346306,0.14133459225071562,0.0008475716009851836,1,0,0,0,0,0,52.33785967521859,4.946609575284116,6.824990853908428,3.631177840921326,245.08851165966374,3.7900919914245605,2.5,0.3703981555991474,-0.07872476684389819,-0.048946736737933746,-0.14158836428063043,-0.12912363375075145,-0.04393400270544206,0.011767222289536155
