,Acceleration x (m/s^2),Acceleration y (m/s^2),Acceleration z (m/s^2),Gyroscope x (rad/s),Gyroscope y (rad/s),Gyroscope z (rad/s),Linear Acceleration x (m/s^2),Linear Acceleration y (m/s^2),Linear Acceleration z (m/s^2),Latitude (°),Longitude (°),Height (m),Velocity (m/s),Direction (°),Horizontal Accuracy (m),Vertical Accuracy (m),labelnormal,labelturnright,labelbrake,labelaccelerate,labelstop,labelturnleft,pca_1,pca_2,pca_3,pca_4,pca_5,pca_6,pca_7
0,-0.6993310865414486,0.0879673116665175,7.542586400811814,-0.0009144841827125124,-0.02609977994607045,0.0058333625624154535,-0.2120667687436591,0.14531558562416555,0.016071010812471802,51.2725913555676,4.86752477208861,3.7061390850099984,0.0011034973949308796,171.8082695116766,7.880941407333375,0.4564452211550363,1,0,0,0,0,0,0.29531135817016474,0.31686773976420035,0.5151047941242712,-0.3366552794511144,-0.06167592699659798,0.13420536687871445,-0.260626155007813
1,-0.8964252238270703,0.07433021906841827,8.023656342525276,-0.0010441209720288538,-0.0901617765380342,0.007494751043597456,-0.5034804981664699,0.22413111358058133,-0.014367116888440319,51.93992987796964,4.9018815339200215,3.742949554734982,0.0003520240656592639,247.2088160019666,7.97461562082617,1.1876447546017674,1,0,0,0,0,0,0.5058104781955046,0.2491043287299021,0.4844803082536825,-0.3169302326336293,-0.0033652432235711173,0.17548326350744026,-0.2694546807364476
2,-1.0532458920158398,0.4462345327322508,8.442601618100323,-0.003172959998661802,-0.046354110380394935,-0.029621807958059423,-0.6563419288967453,0.5297445302021979,-0.02211081847638361,52.20539001673547,4.9152333352947375,3.754325326279294,0.00010147871024529264,263.8755236199469,8.007870112523525,2.5276082296603697,1,0,0,0,0,0,0.5958528517837678,0.3200807606568723,0.4795249363965438,-0.3016017279561557,-0.01572530740400132,0.236967788981848,-0.29979815715893104
3,-0.8925434718592252,0.438570174225219,9.07530349058814,0.0252701374126527,-0.08385754289373362,0.00015319712443217362,-0.07267759839773835,0.4680865340763442,0.04590005700682714,52.2978571906705,4.919754653106751,3.776295801520285,2.8996563864588506e-05,266.9234577804445,7.02557916141501,4.0338134596051445,1,0,0,0,0,0,0.6129200345094497,0.33909419037155325,0.4819650901038,-0.27346240438638103,-0.03330740579754528,0.2128847316878131,-0.290544053171204
4,-0.18860067636300934,0.6912591591396128,9.182671352300028,-0.06446981239731281,0.02840685930789785,-0.2639801983847128,0.1684443777511078,0.2644344608389079,0.0031251906929525013,52.329551477542836,4.92126452209032,3.80106871798632,8.27949928860471e-06,267.4771341903525,5.73048586516854,5.587081312141817,1,0,0,0,0,0,0.6040214052860011,0.3509444800838761,0.4215111957384608,-0.20851109463145845,-0.26910394827446965,0.16571812928994714,-0.261057465183166
5,-0.4225189790598903,0.2184356603857404,9.41928375538352,0.024622862500006903,-0.1348106606256611,0.2661873210265729,-0.3451751933001196,-0.007879857903387522,-0.09832853081355927,52.340392035708426,4.9217642505619095,4.118582875976348,0.2464990091359155,267.5776907480016,5.0018635770912185,5.525358585379487,1,0,0,0,0,0,0.5709857472766818,0.2757211904441623,0.4749378030169083,-0.3149574432550265,0.027400323576372086,0.06504534183448266,-0.113439110200818
6,0.3070375558020817,0.11929544244018493,9.849287725631113,0.0470137066277967,0.06889911572509097,-0.0472002434270587,0.0517794769170043,0.138329167094419,-0.2448435504500321,52.344099923705514,4.921926749931526,4.514215515797988,0.5633735489142704,267.5959533059297,4.447248839762448,4.957875073537107,1,0,0,0,0,0,0.5042277774887995,0.2010710872376667,0.3979750984016329,-0.13975916125694413,-0.24165684449366465,-0.0009323943149236039,-0.06606662368007643
7,0.3454250648798757,0.12886690435172116,10.322729938171744,0.00964137316698116,0.1004613057009939,-0.32148720137463177,0.4564609092523635,0.3895125214105176,-0.1550938866060994,52.34536562122591,4.921972669395376,4.8674191925622505,0.9360675989703164,269.7679859914103,4.17110086273093,4.550899377131816,1,0,0,0,0,0,0.4677205882466988,0.1602698256912406,0.3276968287232384,-0.02230475383693454,-0.3635581990836052,-0.06510781848636234,-0.09722094695723854
8,-0.4163561445656855,-0.6350238137691193,10.11560964518625,0.11412524739162128,-0.056189870183353335,-0.09460692126559224,0.3740254902732716,0.502511779693769,-0.7439833632486152,52.345798525941184,4.921979398888022,5.20930066981791,1.3246988962258621,272.3311750854563,3.98046944666538,4.194182558706183,1,0,0,0,0,0,0.4478874505037799,0.11754000949949522,0.3659727993958384,-0.011346711179567395,-0.12556017769692898,-0.15825652234947346,-0.07062936068328174
9,0.095005479034729,-0.34656230489022266,9.847201120915996,0.11153610112189566,-0.03228163495614944,0.07909621326029734,0.7096485789130533,0.4629224830612591,-0.7766371186775071,52.34594659167016,4.9219705182695135,5.195031216362839,1.675011489112705,273.4923204776608,3.8852416409087103,3.9161847323443273,1,0,0,0,0,0,0.4271711969391348,0.08716865678453545,0.3089863764173877,-0.032338518184591866,-0.10825015572718706,-0.18703025370062806,-0.05430265435310098
10,-0.4080693067860816,0.3295986582725817,9.124550916159698,-0.1075631607630404,-0.12343056964829956,0.04076726049799792,0.2485708996484239,-0.3405313460405461,0.009555583024670187,52.345997234359906,4.921956114826866,5.0857228514375885,2.0143834986045457,274.39883406315585,3.8193121324609054,3.6628357864192433,1,0,0,0,0,0,0.4057596584223775,0.06607344624190932,0.1814293180015714,-0.16886570045914376,-0.055280684924002836,-0.21886715969537945,-0.054434915563590994
11,-0.09813126420898244,-0.2754154911381509,10.364370655012195,0.08330830468289037,-0.049636735776791605,-0.10582101296580083,0.27227125897876264,-0.5644523147764398,0.12456900998091135,52.34601455559982,4.921937644977215,4.903104899826451,2.2041623584274244,274.768066609318,3.799065399595413,3.4775216429301725,1,0,0,0,0,0,0.3835227183447606,0.04200090786353505,0.17336121168410146,-0.013867475451236969,-0.12448788911470195,-0.1640439738456588,0.009648691986501215
12,0.1045606207085388,0.43567177495316856,9.786616590324275,-0.18924151426670344,-0.10333108530818748,0.12696924751661975,0.6201533038857006,-0.4466753610187117,-0.5277466372432575,52.34602047995638,4.921917819238786,4.70092427770579,2.351230229653666,275.0397209975568,3.79284769524201,3.3135107509118478,1,0,0,0,0,0,0.3799741935620524,0.029339966282513664,0.1244735952891027,-0.15432402126544711,-0.06573362008037886,-0.2336306341634158,-0.06582772922707203
13,0.041598608517821725,-0.09568323855734516,10.092238118356327,-0.0291144823938623,-0.009838568143215877,-0.06634771391693631,0.3725767387611551,-0.5290368973078567,0.03798755229671647,52.346025016217105,4.921897223555244,4.839491888631902,2.4468065857445165,274.84352687732917,3.7909382589056464,3.167403149051404,1,0,0,0,0,0,0.3641252553769286,0.01914027422572474,0.1215922758934599,-0.0338115759787177,-0.14368276358483725,-0.1916313230304211,0.006014790161220996
14,-0.2961772544437011,0.21437673585371875,9.992907019406458,-0.03817754677132026,0.008576889201522286,0.010643912410809128,0.17633247525301124,-0.886594638047392,0.2129937052689542,52.346026567747266,4.921876371143849,5.068988549082492,2.5276814878633096,274.5623895455693,3.790351877354612,3.026901640252855,1,0,0,0,0,0,0.35662431855483445,0.018248782314238543,0.09295801409494184,-0.08958950005855981,-0.11125981019035038,-0.2035640928413984,0.04556276265291874
15,0.14297115711117675,0.09368373275115552,10.104029529936351,0.1355864300994283,0.037467726705995366,-0.02164755713183205,-0.052059917196709576,-0.6334615502574069,0.21163508637627146,52.34602709841471,4.9218563866566445,5.0467217492092304,2.443599947038916,273.89754191860453,3.790171801529696,2.923213036595366,1,0,0,0,0,0,0.35251833376942004,0.0035058650680374307,0.13368206466443866,-0.029704092407135167,-0.13779235662073389,-0.19102796393545526,0.0758506569091781
16,0.18205633387362105,-0.6132744226026553,10.561428956394987,0.0911209203634394,-0.008423143368696706,0.08027650567413168,-0.1399474615321069,-1.0161426278929957,0.9443823284871182,52.34602727991805,4.921836691567099,4.95727184486973,2.3124206189757275,273.16300684495644,3.7901165008425215,2.8310512310693783,1,0,0,0,0,0,0.3494841446640615,-0.013664821473112468,0.15610993228440753,-0.053671380267960325,-0.08397461459536633,-0.13637803203830726,0.1438301687057323
17,0.3199955719542308,0.3838696931097159,9.699406503973467,0.056305413286967476,0.017124495619499303,0.012778491633655116,-0.08456580226104535,-0.6903897450154342,0.3815656948461319,52.346027341997356,4.921815503762244,5.010784215406857,2.6214918114903467,271.96571360233446,3.790099518185336,2.702926566690665,1,0,0,0,0,0,0.3349791898806941,-0.011015136123567536,0.08804624966105251,-0.07351783503372968,-0.12773782662657765,-0.21166501424762085,0.06618442799147077
18,0.0746088460793495,1.230727059730579,9.460226958940007,-0.1818734143226976,-0.017178960697499496,0.0071136657064062424,0.1190468928799025,-1.2272958103937284,0.620713336896388,52.346024853267906,4.9217938182315235,5.102446083235659,3.0562615101356583,270.68435167860736,3.790094302867772,2.5635409455711393,1,0,0,0,0,0,0.31411416533410946,-0.0033884479250965195,-0.049538735343331065,-0.16980136828347542,-0.1233677112598908,-0.2484716776475929,0.020316117237611724
19,0.7112899789083533,1.807026424323112,8.789674244818759,-0.24633729606334695,-0.13381085435888068,0.008440764715305471,0.9050281374741443,-1.700873504931494,1.3142792155131553,52.34602400205168,4.921771013214159,5.311727201888966,3.076794743717856,270.5334809827478,3.790092701261087,2.5198961221781717,1,0,0,0,0,0,0.3135674907742652,0.004115353375930657,-0.12798343516312571,-0.2399148177206453,-0.14697372982937906,-0.24643725191209095,-0.04924754171793301
20,0.3536502006397124,1.8631832587551669,8.96632358625602,-0.2529838624254135,-0.0783545322286716,0.1264039086974735,0.23668934847415635,-1.7458251912825302,1.1520428818967614,52.346023710911524,4.921747517076799,5.552395378934271,2.9790570568903085,270.5879241607986,3.790092209412998,2.506229930545896,1,0,0,0,0,0,0.3187672547931855,0.008833159383990534,-0.09500044193136492,-0.2901459218001596,-0.10219512927129476,-0.2555821274566126,0.023701145879071826
21,0.15638119031816347,0.8922357081097905,9.701620243085653,-0.02830523028842058,-0.08804013471942806,0.014948190895258591,0.7396118989179872,-0.9121350789225964,0.2356502117766688,52.346023611333315,4.921725061863618,5.682924682488473,2.9547237690226487,270.5978118445931,3.790092058368085,2.501950733628348,1,0,0,0,0,0,0.3196342119499578,0.0067530533526881644,0.007578961384334154,-0.09810072115356992,-0.09809703963465533,-0.27525373933229635,-0.020574531469509882
22,0.5719642811759175,0.6191965588347841,9.42064814625042,-0.0674318148270382,-0.012271046675182348,-0.02337491813977793,0.583588478137684,-1.031819233682431,0.3681999244982395,52.34602357727472,4.92170295373262,5.784063766273463,2.9513487432178707,270.59960759374513,3.7900920119826944,2.500610819279723,1,0,0,0,0,0,0.31647617442270026,0.010097557329493821,-0.007471512986691067,-0.07957635574261511,-0.1666945428082875,-0.24988841347210625,0.02175578100089529
23,0.06979126338133301,0.15134146045569954,9.533904697068118,0.06409897100590288,0.05396416250149383,0.01850666068580366,-0.004605305133853266,-0.2366049858909081,-0.6058486744616278,52.34602356562573,4.92168000780487,5.930653439814197,3.0361231825568784,270.72268652177587,3.7900919977378953,2.500191261475713,1,0,0,0,0,0,0.3179144830892989,0.009595193699605093,0.0791709547825156,-0.0009975630305408168,-0.10459311593739673,-0.2959869015073562,0.054079682426509706
24,-0.2998225721607014,0.5101560915967924,9.319138976099053,-0.003536172053152306,-0.06550242910118363,0.0892823921391051,0.2023718094503657,-0.3819089761370392,-0.4507255715918352,52.34602356164144,4.921656782525049,6.089371957351818,3.1460658285101406,270.8677922631794,3.7900919933633648,2.5000598883390004,1,0,0,0,0,0,0.3204590647330595,0.017158949024830027,0.050546451634069005,-0.07323710076639273,-0.01543083146421474,-0.3302180977758372,0.006024163644249589
25,0.26723449582112946,-0.26551964952319995,10.052675482573996,0.10766542855312213,0.026379560070536396,0.003371435081989768,-0.07837017816011005,0.041447253147075265,-0.5259137077644012,52.3460235602787,4.921632828414603,6.11229492504708,3.1774561551130724,270.36220018315794,3.7900919920199607,2.5000187524075868,1,0,0,0,0,0,0.3148343132839011,0.01154157925286537,0.09597951387886786,0.0614548353996895,-0.080895831059934,-0.29064962112294584,0.0659113580817913
26,0.3792625654254909,0.33250036000934924,9.403690405075263,-0.07145747624390096,0.04616364383434689,0.024291438088877616,0.15499018630127598,-0.916078065082335,0.19147949926669686,52.3460235598126,4.921608949127593,6.098980836739957,3.1864185790723574,269.7384317854717,3.7900919916074063,2.5000058718073697,1,0,0,0,0,0,0.30889130301796963,0.020964239370599876,-0.009298729623046877,-0.058094885034588,-0.13574420090299638,-0.2623245444336854,0.07646260822531123
27,-0.472044593162004,0.7014587747656554,8.867825037155113,-0.012762918375008687,-0.020026605046784024,-0.08947228909348334,-0.1050289654398685,-0.598259390636197,-0.3873585874223125,52.346023559653176,4.921584459105025,6.025923615782746,3.242563863358141,269.3387064132336,3.790091991480712,2.5000018385970777,1,0,0,0,0,0,0.30856318138393113,0.022386260894566117,0.0068783699837602005,-0.05788232582943693,-0.07926187246640466,-0.33086165231597264,0.005946407683985118
28,0.09062134307912834,-0.493684601326729,9.65756697705663,0.319461740254563,-0.04332170934564943,-0.04790470381499011,-0.3203516249794647,0.7148495236746397,-2.0582896904250543,52.346023559598656,4.921559447598676,5.936923933926687,3.3121804139986253,268.97967055750246,3.790091991441805,2.500000575706763,1,0,0,0,0,0,0.3092732563600564,0.005984231659989972,0.16647143647856327,0.15437816956885822,0.0008677079749745523,-0.3634173172745591,0.0005068849478328061
29,-0.5582697379474821,0.21202054614812935,8.961542092651355,0.00594341437770779,-0.2144914562594925,0.16256798096548392,-0.41748516905750105,-0.5775322031953602,-0.8375874511707729,52.346023559580004,4.9215345800527786,5.8380985393173495,3.292760490093918,268.9553986007324,3.790091991429856,2.5000001802669445,1,0,0,0,0,0,0.31274941702984105,0.008671794177351573,0.06604899293383644,-0.11365281989774205,0.14142666660565226,-0.35436490993513503,0.006254937064072229
30,-0.062064776986478776,-0.10865671061735632,9.409989552276972,0.2602809884138992,0.23297276399156144,-0.10127717999778052,-1.115452172259013,-0.33435216307469884,-1.2759189761716587,52.34602355957363,4.9215094426663475,5.736651501874144,3.2479191046658293,268.9918997283308,3.7900919914261872,2.5000000564457,1,0,0,0,0,0,0.2980948160307004,0.006866399702708984,0.08574622751238807,0.09556912362820554,-0.15192554859556856,-0.28269979716816984,0.1613442539728895
31,0.7870074225953194,-1.158694912404036,7.919971629587088,0.7415928460190393,0.18518769870526705,0.003241725772923823,-0.04596952084439376,0.5293085856846182,-4.480799913125984,52.34602104960912,4.921485168831858,5.5210468804459225,3.202964337069569,269.53047429320867,3.79009199142506,2.500000017674439,1,0,0,0,0,0,0.3001466171785672,-0.004522834913114657,0.23404788588634284,0.3019173798917413,-0.09471401343334182,-0.36664459940175015,0.0462889704395346
32,0.6206509355172172,-2.2304451855772607,9.5523484477637,0.3907043811875411,0.16721727985346246,0.00454443438327161,-0.7520057439767205,-0.04562573199492581,-2.6249999311336856,52.34602019112989,4.921461182937161,5.274979296359762,3.1579773674562763,270.1602327964085,3.7900919914247138,2.500000005534271,1,0,0,0,0,0,0.2988278834981589,-0.020427188436720832,0.21022717088762827,0.2523593637632607,-0.07424976690481502,-0.2521795683173416,0.1744126919810659
33,0.3207067362219658,-2.110106334430028,9.687047421445703,0.3244305857325006,-0.022625553339631867,0.039104876303371526,0.09691354972661548,1.2453225853611305,-3.3334163552346867,52.34601989750557,4.92143729305212,5.293857540858248,3.152277729984082,270.43829326661063,3.790091991424608,2.5000000017329067,1,0,0,0,0,0,0.31304617779873545,-0.02307051663233705,0.27616742384446685,0.26735850190640953,0.0256087687735432,-0.3493534388862952,-0.00785229609796622
34,0.4424825830914857,-0.4380134020505997,9.0818339464074,-0.015370645655760571,-0.12235987140177748,0.05001663194445871,0.13537689881589296,-0.06341577354767503,-1.704463086461778,52.346022307040045,4.921413753022422,5.383436955699613,3.1577952337456106,270.652480188906,3.7900919914245756,2.5000000005426126,1,0,0,0,0,0,0.3146641617239147,-0.007186973301474935,0.09957329116566588,0.009197976614432798,-0.004016249857986656,-0.3333742256779241,-0.03689385798234572
35,1.1351244770063984,-3.3672665318683315,13.165188381340089,0.3458369557870799,0.09407466438301587,-0.11443000855269585,0.4995719689561372,1.2915829484386117,-2.327026534425741,52.346023131169346,4.92138969396286,5.342312367365778,3.177232577401816,270.8550417580722,3.7900919914245645,2.5000000001699045,1,0,0,0,0,0,0.3050318562874271,-0.029222889866226724,0.2934917174314055,0.4813465261489346,-0.1210952655970776,-0.20986574716725734,0.09260140253911103
36,0.23510854193553465,-2.1696932603996992,11.433073075742822,0.1978276895028744,-0.016912673350830267,0.0665725940363934,0.1655505047925298,0.6818192016249277,-1.7939502669006175,52.346023413044996,4.921365143997549,5.2663094027648745,3.200644421081176,271.0555169668526,3.790091991424562,2.5000000000532014,1,0,0,0,0,0,0.3110498572142899,-0.02623709215593614,0.2252540834455395,0.23942703769256435,0.015932822480249995,-0.2642979658465481,0.06572643768267285
37,0.7376680376603426,-1.8335817392447,11.06825638671116,0.18586882654094786,0.15059312696425428,-0.01539126567535734,0.3886356339642283,0.6706429835961022,-1.113934362432209,52.34602350945449,4.921341383872953,5.252573785576232,3.182321844955023,270.64179934400624,3.790091991424561,2.5000000000166582,1,0,0,0,0,0,0.3057871241554594,-0.02426288360429289,0.17605608894932026,0.257686525507458,-0.1448534060935022,-0.22341505898458064,0.09635730340591384
38,1.2024243652340083,-1.0614016092496563,10.506486051303892,-0.1256198498979408,0.2292257791356871,-0.21169337673335006,0.7157161878016005,-0.02809121211361354,-0.4572857439460665,52.346023542429286,4.921317887110132,5.2554545658402825,3.1520836165486488,270.11656022297456,3.790091991424561,2.5000000000052163,0,1,0,0,0,0,0.2986068152593049,-0.008621622717741334,0.04078521496894405,0.17682773004364225,-0.34010745843649404,-0.19870493587855825,0.059491301623678085
39,1.4769703025596397,-1.1379186609041825,11.234551734704345,0.14691785447029945,0.31428465544474216,-0.5254475323868747,1.5782521982143052,-0.02516350772458564,0.2247823530650105,52.34602355370759,4.921294478161759,5.468677680618253,3.1077257718427305,272.23081923867136,3.790091991424561,2.5000000000016334,0,1,0,0,0,0,0.2977947937111349,-0.003533284283875781,0.02572783666316666,0.35818786020717003,-0.5191435298657853,-0.14310481533961353,0.04384250433980623
40,0.5030800341894063,-0.2754516501998626,9.776166236265643,0.103640586672225,0.1661986540519134,-0.5992701124853039,2.281473993644876,-0.7617737764659734,1.776498786898009,52.3460235575651,4.921271416336145,5.738030668314017,3.059336728551626,274.8244250552105,3.790091991424561,2.500000000000512,0,1,0,0,0,0,0.308690929360094,0.007783455446360782,-0.06412179626541832,0.22578703727280536,-0.4810635125273226,-0.15733932956663538,-0.03201731395684529
41,-0.18253843353426924,-0.7616955405791155,9.647697821582316,0.16604699883233012,0.033571284639729686,-0.5547258207086398,2.474609029857765,-0.7193818121223516,1.2583313778145122,52.3460260688468,4.92124974162281,5.874495567101018,2.9526380080686923,278.5690031369033,3.790091991424561,2.5000000000001603,0,1,0,0,0,0,0.32534563944212,0.006061738503214363,-0.004470451780184577,0.23143416061226801,-0.3599300551713499,-0.19441336000470705,-0.07145946466114265
42,-0.17698528016477022,-0.6169998883708547,9.434195137232974,0.08185024200946879,-0.004525870154975978,-0.5900436264704398,2.0916232381472644,-1.1969288902077917,1.7330637261211603,52.346029437738885,4.921228529423427,5.975498916532272,2.8292908021538765,282.52261475083145,3.790091991424561,2.5000000000000497,0,1,0,0,0,0,0.3387592064823061,0.006764700052804877,-0.030065976832650613,0.16445388195759467,-0.3619849608741653,-0.1805833548520957,-0.04712180579454565
43,-0.9109938968952254,-0.08314753707359747,9.324980651786484,-0.17258755299123102,-0.13930342004509733,-0.1459561678114889,1.0877165422518271,-0.6359685625151651,0.20836021569591834,52.346035609920435,4.9212116033918925,5.8177336602656355,2.711907538891933,292.9385191978136,3.790091991424561,2.57273884975877,0,1,0,0,0,0,0.38917320990039145,-0.0034502508152488014,0.05042010307648365,-0.05542487056862338,-0.09248937480508068,-0.29923511495392097,-0.07204266491666393
44,-0.8484100656343327,1.3146424675820119,9.282575465120237,-0.04948532845606492,-0.2260823614461385,-0.07138784136228904,0.6062343124411147,-3.419433174061549,1.574941527491931,52.34604274090669,4.921195788683226,5.590915626198778,2.5962270735396777,304.52807129741853,3.790091991424561,2.668254059463501,0,1,0,0,0,0,0.4155915925972724,-0.0028948791304349328,-0.10583417871574896,-0.2687444140966101,-0.055318948904048364,-0.20174709716750724,0.044198000346934184
45,-1.1712487129042062,0.5309686892520373,8.773316722079326,0.30194117556973143,-0.2630593279210277,-0.14193795252074942,0.8095001002726342,-0.7466393894754009,-0.8193383791805657,52.346052709793746,4.921182887267956,5.3845431587377846,2.9883168245011515,316.8627205358949,3.790091991424561,2.7282129623804128,0,1,0,0,0,0,0.4502740255340557,-0.026623101879763602,0.0568444885377068,0.001348636370991434,0.05332222199827613,-0.3521471154813175,-0.110287762969685
46,-0.9890646104201952,0.6923023135186696,9.553639901910822,0.0069718720750092675,-0.22804889417025664,0.11463874924896228,-0.18137246515863925,-0.4431515133482112,0.2595115772006813,52.34606615928592,4.921170957251226,5.183626243169084,3.525382829136792,329.33269039982173,3.790091991424561,2.7770382092990875,1,0,0,0,0,0,0.4767849350035742,-0.045158447536176455,-0.014650184704491413,-0.09854101908283262,0.1557489126071461,-0.3350136416677072,-0.009338492317041874
47,-0.28823926984119075,-0.10271190270177356,9.902360249616507,-0.0634711636415388,-0.16686813684376786,0.13446986593576485,0.8405099938760936,-0.3117844279983554,0.9318496338782326,52.34608330920632,4.921161576029787,5.3828760898666905,3.882351635095602,337.16243052991064,3.790091991424561,2.787539680217411,1,0,0,0,0,0,0.4857303569436479,-0.04608093083346343,-0.07248531112001744,0.005172092624992057,0.08471320823017567,-0.28615506055805817,0.0016555738793931365
48,-0.08897466666142484,-0.2667486316073548,9.22039217568,0.03249009206062943,0.0243901926829766,-0.004126162187999939,0.5347046597677101,0.008213767681569674,0.012833095700534812,52.34610172477842,4.921153044669897,5.688910476936723,4.187899733775143,344.14946150416387,3.790091991424561,2.7860411010455417,1,0,0,0,0,0,0.4909758653690192,-0.03634864677911973,-0.09666338500122973,0.1236347375106952,-0.02573702998433626,-0.3159186887891775,0.034841050123754526
49,-0.4597119778308264,0.16950351304702788,8.362532316467409,-0.01573199917231525,-0.009794156927359002,0.0953117507695101,-0.5888217537826719,0.1370811207526908,-0.3559249340682786,52.346120573239354,4.921145432369348,5.732669751740836,4.278710948206448,344.6409333553653,3.790091991424561,2.8343079456396474,1,0,0,0,0,0,0.4974057192767146,-0.03190554597412593,-0.08889104710090888,0.021981950994032,0.08361846147394393,-0.3712786689915196,0.05882788589733689
50,0.1528503027251284,-0.2328927312808295,9.237918139397744,0.14554778574982313,0.09277727381736277,0.006207961644931134,0.1607371191150404,-0.4476435473358192,0.8089900369456142,52.346139569760616,4.921137808674575,5.706440886710876,4.30821145948155,343.9527159052328,3.790091991424561,2.8981573179544164,1,0,0,0,0,0,0.4872891559807272,-0.02924550666929194,-0.13153320160842286,0.1306700037819355,-0.045165661195958114,-0.2573399393951453,0.12623998832173186
51,0.4274866584862178,-0.2777046388905443,7.346004791593102,-0.09180703510037568,0.1260989249740644,-0.015140129104760962,0.9339139589002476,-0.10478102773321246,0.4084408573749245,52.346161126885036,4.921128274127266,5.576580707116084,4.39879986895281,342.9684309401345,3.790091991424561,2.985194781569475,1,0,0,0,0,0,0.485423810167357,-0.01829962998556893,-0.17965371716969147,0.10293549055555903,-0.12082398081912765,-0.29570484303983197,0.025543000709102384
52,1.3463589344555833,-0.16938185344409046,7.331307537928144,-0.2369446763623449,0.12394066531879733,-0.06807829456841384,1.9450847298777765,-0.4414162114823272,1.0626185271998652,52.3461810498462,4.921118102431853,5.419066500906679,4.506830159287515,341.9303757493695,3.790091991424561,3.0794928027306256,1,0,0,0,0,0,0.4790126543758241,-0.009363480393654335,-0.2696670101771364,0.10642758611667057,-0.2332079577049039,-0.2460168869843369,-0.026734426283783284
53,1.2809415398311368,-0.6794118215002622,8.938112511113014,0.0496320716751662,-0.03600185579191928,-0.0008846784485964239,1.5681065436089978,-0.30496405124426496,0.3018071868034351,52.3462004138771,4.92110740044575,5.142526058535831,4.584115673192052,341.12806067990397,3.790091991424561,3.15046971587182,1,0,0,0,0,0,0.4790360827400591,-0.02057665376747544,-0.17928232911972086,0.1958556476930555,-0.06245461959179537,-0.2435400173636845,-0.01847098858996352
54,0.7503454211037901,-0.07041922870182682,9.510187855584304,0.00769424299409853,0.16936359340258975,-0.004188750949024782,0.039832347280859486,-1.095337977334019,0.8407997987815725,52.346222096700245,4.921096521641339,4.834223453188785,4.652623418393237,340.3685594920036,3.790091991424561,3.2141440933635783,1,0,0,0,0,0,0.4691324161403886,-0.019822826071574658,-0.23420230476020945,0.11666616918871756,-0.1035776421254799,-0.1886868219502415,0.14955036079197992
55,0.12891084827188015,-0.08874587736516963,10.647226895378283,0.14098511272651632,-0.1642380700676391,0.06372015625991727,0.5302455422779119,-1.520452498664798,1.3373514357789758,52.34624206265397,4.9210811340882445,4.7621924545805445,4.825797721940952,339.9441830439423,3.790091991424561,3.2302767694702377,1,0,0,0,0,0,0.4691601305179941,-0.02444840265860169,-0.2318964830471049,0.0988537954034564,0.12560030902701685,-0.1948773735738369,0.07661431744878583
56,0.09919656630907886,0.2381653738039002,9.690865140711736,0.02436732109463305,-0.2475764311284288,0.0003776187475265647,0.9365084560625264,-0.9191807312657148,0.9844874401048592,52.346263951351844,4.921064243153473,4.753210907359307,5.028855947441021,339.5806701894088,3.790091991424561,3.2315228886245175,1,0,0,0,0,0,0.4677734518393547,-0.0198316008599878,-0.2605821112177655,0.08814916490588802,0.1375185789967322,-0.2654517133996984,-0.04718541568583079
57,-0.2574752173788703,-0.8358840550661879,9.845739303996373,0.237969895866166,-0.04004107151625469,0.006541832408841158,0.004775550464591215,-0.2413392548469565,-0.9006178061077543,52.346283987720575,4.921047486620709,4.616338993772041,5.2047221324548865,340.16934911120086,3.790091991424561,3.217058347303958,1,0,0,0,0,0,0.4584100598540125,-0.028647132531170506,-0.15886636631486095,0.2555941199420411,0.14734785171791667,-0.2920639942204297,0.04948746228519915
58,0.3111636550641553,-1.4004670676172477,10.991413958365758,0.2916170833730658,-0.03526217320769541,-0.036860087348600114,0.6543927395862057,-0.6745930564536211,2.2256079045342956,52.346305900502394,4.921030457060276,4.445339173587394,5.372824569157428,340.930985072955,3.790091991424561,3.1976744391483987,1,0,0,0,0,0,0.4493778810228317,-0.04954521442862672,-0.2298360723717209,0.3178005895618732,0.08694936218588988,-0.13406641296784516,0.14423370186862652
59,1.7140637195747148,-2.152565707457305,12.619378270774078,0.5124199652180663,0.22385551024394698,-0.08585908127169245,1.0535048512595255,0.4785281980373637,1.370728893234788,52.346325945108525,4.921010158040291,4.4544027461643605,5.445827265357613,338.69599714245135,3.927796793518388,3.2663292223274305,1,0,0,0,0,0,0.4465565745615135,-0.035639353688410064,-0.1553025653120799,0.5741997708837605,-0.09459840491537463,-0.06936949479299623,0.18369442950050505
60,1.262003105237064,0.15947702865630964,10.050455712734829,-0.17242405633395594,0.12603014114884747,0.0091491875723015,-0.3348828744694772,-0.9276668510664146,1.3132946621336477,52.34634786070776,4.920988768862945,4.511515903443236,5.4916778548236405,335.91675315849324,4.1077902825398365,3.3625509317373337,1,0,0,0,0,0,0.4555061943293499,0.019707050581721158,-0.3549044025139171,0.12001153882756152,-0.03888603700146619,-0.14699404377197373,0.12039357440455473
61,0.3497800074358931,-0.7418307135627278,12.587714502772375,0.15480129994587075,-0.008641659882068109,-0.06584957085617618,-0.5345195413952701,-0.4927012441041611,0.4867951215930426,52.34637041623985,4.92096669834506,4.3322527345525845,5.601224141514107,336.4759172954425,4.125998869610991,3.4668876356985194,1,0,0,0,0,0,0.4590103343907502,0.015319129025765573,-0.23572330325568505,0.3036248074931856,0.12246766923660345,-0.1456656028376591,0.11354265294072025
62,-0.4582697288624207,-0.006745158207164925,11.240250918325426,-0.01216974201452048,-0.18019117112003602,0.07878511234202594,-1.3589557051855867,-1.934004327365797,0.4260979795656477,52.34639570060951,4.920944082801111,4.0899125194775285,5.728956876042035,337.6413605904512,4.0945238511421636,3.5737653299080607,1,0,0,0,0,0,0.4604595264170464,0.02284548855948109,-0.3262468069916488,0.06725967049026951,0.3032900900459484,-0.17967074041672335,0.12436513745576135
63,0.047153331710288016,-0.633052031661033,10.839948554633516,0.2541063845345274,0.046960762163224506,0.01605073596117433,-0.19161914464230834,-2.2665067035007147,1.95604598612865,52.346419408356866,4.920920649841116,4.125114022082977,5.872598954645895,337.484763894526,4.095700120949403,3.61082138263666,1,0,0,0,0,0,0.4457763438120693,0.022277539712548325,-0.3770557556930604,0.2200263356121142,0.12764072208161034,-0.059262224836984415,0.2161490589316376
64,0.5585198244919624,-1.9781184427320584,11.733819949286776,0.5919310876228265,0.02317291348472387,-0.0091400380465918,-0.3978070607431133,-1.5552849809659124,1.9582583378974423,52.34644257685457,4.9208969443247215,4.234377559698127,6.0207837378473785,337.0880402701618,4.10690349283802,3.6260148475274168,1,0,0,0,0,0,0.4419973001644621,0.0114114644823256,-0.2757849084044547,0.4252802599313799,0.1832992892346204,-0.01968804327772429,0.27702350222828404
65,0.1682414237791035,-1.918648385960864,11.854761994223669,0.1298946094265147,-0.17922716408212536,0.1156992205424089,0.37176199792397424,-2.579051120644247,1.6925255652809574,52.34646305095122,4.920876644192414,4.3118528588034515,5.827312947092482,338.6527599248743,4.051912077775063,3.587141208317811,1,0,0,0,0,0,0.449867706918575,0.017401263722359797,-0.3363803199139723,0.2384465285739499,0.25823387764991657,-0.0509166642114144,0.18749015483171455
66,0.3777101470945989,-0.8869461901024689,10.965947938604627,0.1542830575403013,0.042706017119265804,0.017664317491979192,0.2937162019916291,-1.988788693043941,-0.3726637974151572,52.34648511344846,4.920857479539679,4.3808454632959215,5.536294203409816,340.5737065967945,3.9765919680987394,3.5313377594387347,0,0,1,0,0,0,0.4563389122232588,0.019273127531420308,-0.3078757376546649,0.24858216775662104,0.0750085773362715,-0.14824517583567345,0.1317905032749006
67,0.025219411582715123,-0.7466271056296065,10.508556073723417,-0.03989130430274335,-0.036256136649071374,-0.04575876347610757,0.8744124671867908,-1.3854061260847759,-0.3935416412651272,52.34650018933682,4.920841871919492,4.397899026204695,4.892333604665015,339.9814407826738,3.9535179115674537,3.560177779622692,0,0,1,0,0,0,0.4796882701602178,0.01832872109442309,-0.23337789517287705,0.17950125388900265,0.03483991692258994,-0.188157562170378,0.013195588393218294
68,-1.171016508622513,-1.3776492135644498,9.606500680532617,-0.002138567295271364,-0.1649694900343335,-0.04152167489410133,0.23103113289391164,-1.3282630176173191,-0.4092556830751226,52.346512875606315,4.920827450344022,4.4010926506930765,4.147602304407177,338.9327385285798,3.946488444266608,3.615521604352285,0,0,1,0,0,0,0.5039923327514384,0.011372511532112162,-0.08427769650884105,0.10142178678131596,0.15673805368201213,-0.20670726271967474,0.018696281705792937
69,-1.0922443250228953,-1.8494857405881144,10.885318400107119,-0.019249539723734124,-0.2621184304471648,0.02342682479104574,-0.22771381396168974,-0.9050707343937572,-0.7602420148863738,52.34652976448288,4.920811199343727,4.484919397187643,4.088584276927427,338.9468750523572,3.8912253527929663,3.5111027643525285,0,0,1,0,0,0,0.5047011994450116,-0.006742782479560622,-0.011242727152232474,0.12324965274303852,0.24797041630697406,-0.22710890089691685,0.03371468906099012
70,-0.05331043148462666,-2.1654982831186977,10.682696518380228,0.2274255218190217,0.03639179087857625,-0.0037718159504572103,-0.5519508313807677,-0.9429887053759916,-0.5236311169045628,52.34654809077054,4.920794338346302,4.59026310032164,4.22534799912123,339.1540387677196,3.821149710486037,3.35665858292302,0,0,1,0,0,0,0.4824915990890459,-0.026138116042721458,-0.025602194296821156,0.25190034339845685,0.07123916024583528,-0.16602261743607682,0.19293847560672372
71,0.8660254560325241,-1.917729956151192,9.969457425930935,0.17427728493106232,0.15448561454389625,0.053739553081130216,-0.058234303596214176,-1.8397167000082275,-0.16888366828291024,52.34656439873135,4.920780134533458,4.507185638165679,4.017898805528093,338.29143397502946,3.7996297136979047,3.2379290719071654,0,0,1,0,0,0,0.4725433651870148,-0.034181926726651636,-0.08934569280610957,0.19298951656601224,-0.06971205541705308,-0.1100558254889258,0.24164001475096455
72,0.3926383939260311,-1.3389234801269807,10.200152241674974,0.07206474513106854,0.15292364630705707,-0.03826915670125737,-0.6071914474257989,-2.1946477704540444,-0.17821167028382626,52.34658001636698,4.920766816723113,4.373827969282968,3.712171668690252,337.23454344958765,3.79302099422684,3.1303826403956547,0,0,1,0,0,0,0.4722780062778534,-0.04186948520959747,-0.08976783506119879,0.10875979711853308,-0.09801500908294106,-0.1211818163979852,0.2425720627147693
73,0.3907215939149502,-1.0514517800314878,10.34028771193953,0.013847675320229132,0.020503964794125584,0.0551139753237634,-0.2128792117444896,-2.006613823706945,0.3980450071460469,52.34659790785411,4.920756019233897,4.5561131352456785,3.7249097491744045,338.7612105828857,3.790991478447761,3.114214450775915,0,0,1,0,0,0,0.48336877079018503,-0.042223926575660826,-0.09534968648429376,0.051838576676679834,-0.02336611447471812,-0.13976492028937812,0.1908860585214319
74,0.21725954425983876,-0.6307664151056425,9.939198043296956,0.08371181350188152,0.07002128853994095,-0.04727950861200364,-0.0584376186159361,-2.4444579076101007,0.8667704074792688,52.3466165770631,4.920746062111899,4.822627623128904,3.8285744065878458,340.75708987662387,3.790368220899068,3.1266590407505,1,0,0,0,0,0,0.4829817681421413,-0.028944753269202924,-0.1568450152797934,0.05624947099918882,-0.08338643336962387,-0.13087861062125353,0.2019487068021313
75,0.5010324569691428,-0.7001341097814033,10.146606734313648,0.14327542207057714,0.03688984721895255,-0.005345088953306446,-0.4567497822675878,-2.21725275802492,0.5928285867024132,52.34663300231274,4.9207328889347055,4.666167166775986,3.6974133199678954,336.70027061434365,3.7901768205778654,3.123930315065081,1,0,0,0,0,0,0.4776050389102067,-0.035991179965460314,-0.1049903998051876,0.05532864842817933,-0.04881357366681615,-0.13139110156338982,0.21192104791955546
76,0.555682386318812,-0.1683092977517786,8.780271602921502,0.02005835447663372,0.05456499598016636,0.04424440821745988,-0.8454113898695252,-1.581400286910001,-0.3681485080916238,52.34664615010217,4.920718961249328,4.396835804420006,3.4992058498807106,331.5442170339701,3.790118042175529,3.1164506412505597,1,0,0,0,0,0,0.4739755249358317,-0.03884834794480877,-0.06745484574340517,-0.030784886191597957,-0.05163929874030795,-0.20314274927228632,0.14834277605434762
77,1.231423303629501,0.6317479144094547,8.631380526476061,-0.27183518285968883,-0.03470127926451036,0.13063280175716074,0.008937606037790147,-1.8449215631686957,0.19625520645691366,52.34666068686933,4.920707960405477,4.390957046279047,3.4104626920240553,334.8634150136385,3.790099991523578,3.093240921914316,1,0,0,0,0,0,0.4888951556062573,-0.037486384857090715,-0.14809566910913624,-0.16440107816230146,-0.09235931431598184,-0.2071924722766468,0.060047880747706825
78,0.6344835724680862,0.21832542176555308,9.358704429880811,0.13275422768555567,0.1595348176773196,0.02348019358573085,-0.5476269200492896,-1.1699171493865232,-1.024916161779293,52.34667569870637,4.920697935477609,4.455380991409184,3.3529732890910555,339.72181865283835,3.790094448228373,3.065105765841881,1,0,0,0,0,0,0.4981686733784431,-0.04653371031143996,-0.03585872749228658,0.025212504198119774,-0.1304948888299191,-0.2238560472611583,0.1323008090755725
79,-0.3062227334544516,0.3905483207043199,8.515998257099639,-0.09224461513565868,-0.037026986252496334,0.04292865906596402,-0.6646753362402544,-0.7416032236878003,-0.9574731531738938,52.34669087303082,4.9206879181135985,4.335722554737547,3.4794561143940745,342.03635058117976,3.790092745900844,3.057694224860372,1,0,0,0,0,0,0.5094748539836498,-0.05241627103546681,-0.04218240795253953,-0.0767662823677622,0.02050458633245835,-0.3042837620089009,0.02650431229222689
80,-0.4249500113547402,0.3081383287549268,9.09414324678649,-0.08670136734660336,0.06109053791775192,0.07106528431643275,-0.8196713180686849,-1.1021641267530855,-0.25528052296086234,52.346706102930575,4.920677903271657,4.166941366552064,3.6584658575288933,343.88887790230933,3.790092223121719,3.056771557602407,1,0,0,0,0,0,0.5041799098303196,-0.05961630460818981,-0.0841930068803975,-0.06531586167697788,-0.0012697160873420858,-0.2507113027684619,0.10979372192198744
81,-0.13610139838812518,0.7164197931526559,8.624224888774044,-0.2020617861971712,0.0442733302655227,-0.09894304826874498,-0.3459587274561286,-1.9971138335676264,0.6791488418316508,52.346723861801024,4.92066757142845,4.0642353069741155,3.7631622826444353,344.26625842372374,3.790092062577988,3.073650221935956,1,0,0,0,0,0,0.4953267649563527,-0.05223674673951263,-0.20694577035569672,-0.1011834300253886,-0.10376702051097852,-0.2080535173326008,0.08196704190439978
82,-0.2859324517662063,0.8767165683022091,8.276296153523914,-0.0055960720879469905,-0.06338705249422924,0.05082525213600952,-1.0339188567187736,-1.4721714153027166,0.7299390339573525,52.346739975689005,4.920657133885432,3.979161052453888,3.8466411055879832,344.37570556295736,3.7900920132755416,3.0961027262455825,1,0,0,0,0,0,0.5024834405566495,-0.06486972431249202,-0.14529826079420194,-0.12627043872707344,0.06160016629223958,-0.2416298848777809,0.0961708605939984
83,0.013546474309693524,0.7699569875520658,8.746478800126871,-0.02756618838075626,-0.1281173389738896,0.11538664464446398,-0.10661656270337982,-2.0855230415406267,1.0842766644220656,52.34675552694621,4.920647296782658,3.837240735070567,3.8811927737425767,344.4774262977494,3.790091998134925,3.0580681381936565,1,0,0,0,0,0,0.4970656213829963,-0.06984422122591495,-0.18939570247132506,-0.13374991737991154,0.06324464994477401,-0.20200791938263246,0.07343247264156752
84,0.5583708894241148,-0.1686276792634076,10.708432263833878,0.23330057070128654,-0.01637701244601666,-0.2972707980091541,0.7748638023993553,-1.8250216809347184,1.9227178191171368,52.34677088576769,4.920637659888618,3.6801510401496427,3.901775152483325,344.5777438035839,3.790091993485291,3.0010936591940824,1,0,0,0,0,0,0.4815168288754159,-0.08413471387209992,-0.17973615981960955,0.16125462864395598,-0.15537384670389726,-0.09624708663555442,0.08170185584049815
85,0.03850883252216941,0.8965986156750139,8.572063248274661,-0.16804082490029532,-0.0784386229483904,-0.13433836123329707,-0.13230814232567656,-2.8869777958066183,2.1881796860052733,52.346786178770685,4.920627771909276,3.68397659770078,3.8969343972407215,343.53204712256337,3.790091992057404,2.986373848464708,1,0,0,0,0,0,0.4812403430980944,-0.07211183037684447,-0.2892152332649509,-0.14684367927067915,-0.07233396334817448,-0.14467510721991547,0.09351147993146768
86,-0.6001251525986886,0.33210205594807873,9.20848464141824,0.08520882706094096,0.06992183499294917,-0.1171209126089887,-0.3311902586955709,-2.20055426936474,1.7311120747452429,52.34680395922422,4.9206178002089125,3.730742406403277,3.8848351142106914,342.27824234456034,3.7900919916189046,2.9848847762647748,1,0,0,0,0,0,0.4774486643295077,-0.07715330711440274,-0.19320175346591192,-0.01716114379839113,-0.06600064794895798,-0.1430986699590057,0.15981765008038087
87,-0.1324928354804492,1.7005726941470911,7.905767723920905,-0.3492447933260431,0.03927252019298737,-0.14404797552455573,-0.5246343055842203,-3.3432753868177207,1.9731832857793008,52.346820080494226,4.9206090719617555,3.5024689749535063,3.877808077289517,341.6413402834661,3.7900919914842435,2.9745425454610195,1,0,0,0,0,0,0.4723065787951556,-0.06572593758010149,-0.3566078476784427,-0.252858933992957,-0.1478381344276926,-0.1572498957857442,0.10889496691260543
88,0.9372584762745244,0.007870231055606247,9.857635929375826,0.0648966396131413,0.07867617851765607,-0.06278344707161093,0.7140433915044074,-1.7991377144473373,0.5861422146164872,52.346835634276296,4.9206004404851535,3.200801294871722,3.8722292451171634,341.1164768508125,3.7900919914428886,2.9614283521388525,1,0,0,0,0,0,0.4706557955882718,-0.09352208562140082,-0.1779080374333842,0.0731752489725383,-0.1545537734826204,-0.12907048184337133,0.08000302175680124
89,-0.04736198579983564,0.04769123097380969,9.845022065366054,-0.11626795091503905,-0.25708595716024896,0.04093748267505338,0.5036657250688585,-1.4827540640398218,0.4557518321656755,52.34685099396136,4.920591523433175,2.9380104592661165,3.7313119672128217,341.30759374828284,3.790091991430189,2.978070113117384,1,0,0,0,0,0,0.4878714327252742,-0.10560934426198652,-0.11962404225611285,-0.06047302777127525,0.09424895506024138,-0.203861920412054,-0.03848832939892737
90,0.13592957246228304,0.19809189621570292,8.4886292420908,-0.03616307926243378,-0.15208237640062908,0.11846976123255112,0.20946101858857213,-1.5405353020520645,0.7292339545930246,52.34686628725972,4.9205825111599255,2.6855939134816045,3.551753468910108,341.6287432294634,3.7900919914262885,3.0040291434090065,1,0,0,0,0,0,0.4924192932885342,-0.11630976760801842,-0.10702001719564036,-0.10597204978266468,0.06000983839070447,-0.18329870623480965,0.01722360944941969
91,-0.5618287660032941,-1.1671371611264836,9.780110764075037,0.2830115662323295,0.049004333989846716,-0.08168581683899752,-0.11735571499988386,-1.2994637857870006,1.2494117626440764,52.34688406781429,4.920574102820852,2.7075000659198203,3.725549406041023,342.4236104461755,3.7900919914250912,3.0007842440237833,1,0,0,0,0,0,0.4788836918220447,-0.1257254493108369,-0.049446404086153715,0.13969780320365102,-0.002339649367156178,-0.10317170188204784,0.1579740048828099
92,-0.5185700948724171,-0.7844088638971833,8.83207492256151,0.118859687018481,0.10146396999129798,0.08681373486116221,-0.59020122023717,-0.8541132445611664,0.7488804042795998,52.34690018911884,4.920565895855511,2.8026094325013333,4.000233502072277,343.30451178772154,3.790091991424724,2.988394926850776,1,0,0,0,0,0,0.4793449551847882,-0.1215555056854844,-0.07573934729780317,0.05973569951104416,0.04397548466755495,-0.16448769058139107,0.16182556123905326
93,0.49206941021330103,-1.053643213153115,10.676415235397757,0.09106048695497118,0.22512550429379705,0.035653554785586995,-0.05565315283632944,-1.3020115746587146,0.43683086555602935,52.346918252875064,4.9205574381933275,2.523875004541886,4.021501354158408,343.58724925206053,3.7900919914246103,2.9518637363968168,1,0,0,0,0,0,0.4676903639068029,-0.1276040043083257,-0.11180529155165644,0.15520730335695893,-0.1065965988599127,-0.08820331348837378,0.1978680858885634
94,-0.5302153994047445,-0.7065009799995331,9.691140143653037,-0.016186037376823822,0.03965188814006165,-0.01694944808767767,-0.4755962782881018,-1.5091585519670605,0.4967379767743377,52.346936981004994,4.920548579097432,2.1453804975661783,3.9704147770484335,343.76135133751717,3.790091991424576,2.907773337461561,1,0,0,0,0,0,0.4702286047530474,-0.1410524214250191,-0.12014875210278332,0.0401169431018705,0.02133161127258765,-0.1418034657868364,0.12446872324322338
95,0.2445925556206957,-0.3196434248863072,9.352901580758,0.17329933220915078,0.08404082214380712,-0.00731734495997102,-0.19184575789568206,-0.8702944438080293,-0.5647652530489427,52.34695342640727,4.920539268306644,2.0647094386887765,4.120160053208161,342.76998927189584,3.790091991424565,2.7993285799122534,1,0,0,0,0,0,0.4605474765223359,-0.15043449241308052,-0.10475740825347177,0.11782974531552386,-0.020600174702119937,-0.1882402503729444,0.07241799445611978
96,0.6450076397950073,-0.24243404324426795,10.052784854095046,0.06640712478646715,-0.002827932894260296,0.043470447576016764,0.3699140124945227,-1.2331013018720087,-0.3713616829590777,52.34697160101414,4.9205298069042644,2.063512596603384,4.327246101368411,341.56696173390037,3.790091991424562,2.670733165736145,1,0,0,0,0,0,0.4466807991183599,-0.15525802942818104,-0.16449888346217334,0.09998564633497332,-0.0020738150187810662,-0.17989284360334826,0.039688122900818884
97,0.14968684267766175,-0.8422568430747686,10.0314162182329,0.21309184637571355,0.1053594431551945,-0.04101716817507649,-0.2616694908451653,-1.200942545452564,-0.3706079694077936,52.34698785709578,4.920519659598045,1.8798295327777543,4.093433825540797,340.85746302262226,3.790091991424561,2.623299040485041,1,0,0,0,0,0,0.4436485855928177,-0.17051514401747336,-0.09515204993782644,0.16155994899371984,-0.029064293641561368,-0.14887179793302435,0.12441594824501385
98,1.0989140507353048,-0.0452277715977748,9.395639121900553,-0.15381352647983426,0.10185590293459566,0.04140701791593159,0.1859775785387908,-1.759634856440058,0.0069250940917280355,52.3470059669496,4.920509283586406,1.6474499151045323,3.733738085685216,340.23757144727796,3.790091991424561,2.601278369599074,1,0,0,0,0,0,0.4510975044836151,-0.1714597538054516,-0.1665477540985229,-0.01890000109534347,-0.13865148989403292,-0.12920859397488935,0.07804072665893283
99,0.01592907072993377,0.3923852187176353,8.647450485417258,-0.05555000241748119,0.019292343551140456,-0.014447559715993869,-0.23307732283228205,-1.2481565293056445,-0.6528069342376595,52.34702220088389,4.920498513473801,2.0529779689746643,3.888253911231719,339.96130295664335,3.790091991424561,2.5636087758189543,1,0,0,0,0,0,0.4524502631596466,-0.15906206944134652,-0.13960653568860862,-0.027000073934755262,-0.02937331756258708,-0.23315422517448897,0.016677615795815247
100,0.2702160742403631,0.17285389360308998,10.007318248633807,0.0794539636510165,0.11943870712269175,-0.010471084177314302,-0.4633014570114677,-1.4378623407140159,-1.1221405666140107,52.34703779320034,4.920487611953526,2.6287316611415195,4.1895849249401085,339.7474664593928,3.790091991424561,2.5210389828869797,1,0,0,0,0,0,0.4397337375231086,-0.14059266928595873,-0.15290774617012967,0.07443300451731456,-0.05343116199255489,-0.22000521958132893,0.10038570575420372
101,0.5263281423234589,0.8482593764915357,9.541844920430602,-0.05748128209030499,0.032512038513538614,-0.05646374264066524,0.12215780255040805,-1.477345005455195,-0.18747020833986472,52.34705567602757,4.920476030932698,2.986098552205773,4.1041434691016265,339.8313833923921,3.790091991424561,2.5071486789881274,1,0,0,0,0,0,0.4474309174988896,-0.1279789470321095,-0.20778837445744724,-0.0033073342136402395,-0.09466014807397614,-0.2311696073783221,0.02577760194096511
102,0.2996756119399332,1.1998325062192678,8.535764509797009,-0.17965524203558406,-0.05133090794352041,0.06144144732906075,0.3209859403433931,-1.3512655061201242,-0.4063762339326219,52.34707183231232,4.920463905499327,3.2851889036417137,3.908272147841091,339.96937673812926,3.790091991424561,2.5022384147620382,1,0,0,0,0,0,0.4613315120308811,-0.11798451391186908,-0.19199718782609945,-0.11419521630002577,-0.036480794299435015,-0.2875327585860955,-0.033146459664196264
103,-0.2276414229784831,-0.2980302854514936,9.44458258377434,-0.06168271859385074,0.025337224091545586,0.06730293548963122,-0.532597759615525,-1.5157788105928938,0.7176562585332439,52.34708739807042,4.9204528699077645,3.4405937129801547,3.995244964573316,340.93557641458665,3.790091991424561,2.505475118677684,1,0,0,0,0,0,0.4569472262416141,-0.1276890023269504,-0.1397879286715926,-0.017412562117891498,0.02036284315256481,-0.19882725175987015,0.15022907017249393
104,-0.08033837438486477,-1.3390279472567452,10.540532172950023,0.10245787696305532,-0.06788945834032305,0.012163015224507606,-0.641658937961231,-0.7108295714822949,0.0896137688674985,52.34710527181395,4.920442197709312,3.5576560210969834,4.1629738185617935,342.05219057102005,3.790091991424561,2.511262660739284,1,0,0,0,0,0,0.458717582193936,-0.13390604037005094,-0.05257492568588267,0.14454893158039053,0.10049401205613956,-0.21317062701278736,0.13478989147278078
105,-0.0675154403306432,-0.7168613696117404,9.218222408945717,0.14714455129495774,-0.03175022658217593,-0.05822030101191161,-0.0565522810206801,-0.8369939948785873,-0.11466173138132355,52.3471214249918,4.9204319645216215,3.794076601570493,4.11440742707864,341.31384611374335,3.790091991424561,2.543893998550666,1,0,0,0,0,0,0.4588391992737126,-0.11547699578567452,-0.09220573935350884,0.12549574023764193,0.022819357076272327,-0.2448190256504721,0.07265339846656273
106,-0.07092522553871594,-0.5827053758372245,10.296823126163186,0.030606105500539424,0.032334966355948604,0.007415360986493465,-0.3378814106145666,-1.7580123704505022,0.050840687308612416,52.34713949964959,4.920421877716173,4.0623482985050865,4.0040857368896745,340.23861382440225,3.790091991424561,2.5849307422804344,1,0,0,0,0,0,0.4571613099898271,-0.09653991920649288,-0.12768319845963375,0.06079326926694676,-0.0070505716341011096,-0.19855550002165065,0.15926831152449225
107,0.2328583382605599,-0.4066386812891768,9.968065189587831,0.2056119309205509,0.08958888378974764,0.0068062172138785605,-0.2421757756819686,-1.2066150767501271,0.7240484416213748,52.34715572154583,4.920411839719916,4.298286643610588,3.944007833482592,340.1251793091342,3.790091991424561,2.562320242697408,1,0,0,0,0,0,0.4613696071411526,-0.09924849609209377,-0.09922549330929346,0.10266649853133344,-0.048046573469561316,-0.18950850260875676,0.17815653156776906
108,1.203064404131907,0.08511078715148784,10.623781358549037,0.06833672449979443,-0.01868979024833177,0.06110643854898301,1.013405619719572,-0.6052069282877457,0.23576090274395897,52.34717381970726,4.920401817998429,4.5255971801528,3.898275308642456,340.1864214495053,3.790091991424561,2.5197803366840428,1,0,0,0,0,0,0.4699206656625285,-0.09185626272299703,-0.10693574472149094,0.0996844173696163,-0.0877201074102261,-0.23333501132092896,0.030116003190566024
109,1.2023090122669131,0.6196694056696479,9.704416227654145,-0.025472933514970875,0.2012884405550101,-0.14329873470692375,0.14328381186172967,-1.1060895730015483,-0.4753703275811502,52.34719004964241,4.920391801703544,4.49909795996206,3.7673278751794443,338.8881225190055,3.790091991424561,2.5687246067705547,1,0,0,0,0,0,0.4621374686057404,-0.07404471422850592,-0.15644778713514032,0.07163982071468164,-0.26631169493348683,-0.23654664569646036,0.07981132145591043
110,1.4944681696550308,0.5211579482722151,8.903262535758708,-0.13455737450099664,0.34319922217824284,-0.08055929265120589,-0.4481583324004853,-1.5919685385409943,-1.0156326467769023,52.34720564059104,4.920381787218088,4.40486993049759,3.612050437089149,337.3429108862044,3.790091991424561,2.6463144993443493,1,0,0,0,0,0,0.459763428429438,-0.06497272644244863,-0.16520940614305565,0.011806355917765441,-0.32999933752763233,-0.21664400613912915,0.15734260065006567
111,0.35662086439222795,0.4510069983019566,8.207870678935468,-0.19151105820913372,0.08536322685797226,-0.09556035844174147,-0.26778614665067946,-1.696560382400072,-1.2911356908034397,52.34722101298813,4.920373044704816,4.628626379934489,3.5855785071533632,337.92157220220463,3.790091991424561,2.692159408621935,1,0,0,0,0,0,0.4709285787304265,-0.052765176128434885,-0.1459698196322939,-0.05676547089366048,-0.1550290234995568,-0.29010617600205263,0.0496495905923075
112,0.7625040421175591,0.6456344228943022,8.337198825848168,-0.19740968342164428,0.047037224983735935,0.02131781285306181,-0.12535517765556276,-1.4369988466086805,-1.1943045276815136,52.347236310634365,4.920364408471369,4.937236669648372,3.595882372504632,338.885985133285,3.790091991424561,2.7280642381520743,0,1,0,0,0,0,0.4813287059275027,-0.044059342133187115,-0.1372000561012511,-0.08186091407863128,-0.1242529339413344,-0.30258450521511665,0.040087939065725914
113,0.5105246566927817,-0.02343491342083304,9.392985326195353,0.0950639425163855,0.3422278200580137,-0.0997246669672357,0.6119602191673525,-3.4819473882182006,1.0934274506630322,52.34725409267602,4.9203580325709995,5.058244566115943,3.595251951444915,342.04823793270043,3.790091991424561,2.725715244956094,0,1,0,0,0,0,0.4659151090065234,-0.04113280509389384,-0.24191180950433186,0.0345722998556513,-0.3257558151588815,-0.09159072350337606,0.27446136135680577
114,-0.2274960206425383,0.0039379719686843395,12.252385051899045,0.13684554132653345,0.2429262517594819,-0.3046011664325836,1.454112079803251,-2.271460541665843,1.8494498084456468,52.34727021448922,4.92035272819054,5.129190395665052,3.5914994520782137,345.60965085514806,3.790091991424561,2.7113882694030207,0,1,0,0,0,0,0.4822942204592446,-0.04958185282728514,-0.1858871440328048,0.17670537320831692,-0.3279306943331748,-0.09849517260765182,0.1646339532896899
115,-0.027011236737906424,0.23016241711715785,10.418821192946444,0.1703092258080079,0.27172106266200463,-0.5390175264224668,1.9131749629009929,-1.5548728437328192,1.058602509296582,52.3472882784194,4.920354137938283,5.141095126141963,3.8012010453118057,208.0721128107219,3.790091991424561,2.7028254181183766,0,1,0,0,0,0,0.107671191901351,0.08172293088782813,-0.14370364765973356,0.22452190111006146,-0.4292353934357546,-0.12431711679036142,0.0060461077325672345
116,-0.00938168370614764,-2.0555555241904133,10.623635332799173,0.4584020612046089,0.06335610733563768,-0.5893547620372392,2.2606724366996565,0.9725520329619526,0.011935545650060051,52.34730700660882,4.920358104264084,5.137244383857102,4.071846914490618,44.908914890570536,3.790091991424561,2.6960676096356715,0,1,0,0,0,0,-0.3240836561751831,0.20287064819993106,0.1553431347005368,0.487968985080941,-0.2415336069816885,-0.14014223976571186,-0.1455698093866445
117,-0.9660091748453572,-2.3385773016124274,10.463503521535538,0.4655367084377935,-0.1856156593505063,-0.3918807926906639,1.3657036398807714,1.079756283653273,-0.2479042894261865,52.34732094206913,4.920373729681772,4.790854473735369,4.1419758298388745,29.720572871998172,3.790091991424561,2.6437786336470297,0,1,0,0,0,0,-0.3604550487563936,0.19241828125898625,0.2308971682505388,0.38750759155280573,0.051887422140462366,-0.18865533537022866,-0.15603317389503496
118,-0.6551898740595987,-1.345538799103342,10.558485508219349,0.2670136771308216,-0.147086808201668,-0.02580999511545523,1.1499538462893302,1.225832057870759,-0.155938638554115,52.34733574824212,4.920393242667008,4.353057952555142,4.1548537115026525,41.406645510730336,3.790091991424561,2.5772328085751672,1,0,0,0,0,0,-0.3252439490492972,0.1620415823036944,0.2021056301381464,0.21221638291052425,0.11594159978050525,-0.20796221941210125,-0.13120140657657142
119,-1.1805217603596223,-0.918246103630584,9.849081417948932,0.11441184921478108,-0.2036942810549843,-0.010043880705924936,1.3687013207242604,1.1665520817746085,-0.5112151684820471,52.34734583229896,4.920421680122554,4.108185388243963,4.090654665856893,53.96342061635135,3.790091991424561,2.5402895736714086,1,0,0,0,0,0,-0.28988640346130035,0.1463266485370739,0.1762267846868383,0.12785509039699006,0.14595191107903566,-0.2590030356432657,-0.20381815209950546
120,-0.1039025342084281,-0.955730042093322,10.151693085452123,0.07538110519675194,-0.05702997810486874,0.009832463680873751,1.0213733120433592,0.11259118716012795,0.6506960870903967,52.3473543012578,4.920453093322823,3.9147947758375095,4.004448794478035,66.67832812680084,3.790091991424561,2.512615586265951,1,0,0,0,0,0,-0.26523689593569943,0.12596239838144746,0.09801414489413908,0.09786813633059076,0.01359076221704692,-0.14377566785910084,-0.05569192334530852
121,-0.2257115082791397,-0.7839000635333904,10.268354221246026,0.0203708886555481,-0.10217984134718247,0.15632765733173334,0.8811818575784375,-0.15689075975626005,0.9719433062278012,52.34735970784486,4.9204874057984735,3.7725704403037987,4.022704885365033,73.03855355566938,3.790091991424561,2.5039502283675588,1,0,0,0,0,0,-0.2471414202178693,0.11344076871897554,0.08325183322027349,0.020763044493993698,0.08867449345665056,-0.1376837583011754,-0.030503237615961243
122,0.29894381156280986,-0.3156151434900085,10.051856995997369,-0.1040881046189377,0.012501307179789187,-0.018024502606922174,0.5010048426978455,0.24140805359331885,0.18056511482870247,52.3473640670137,4.9205223671563365,3.643999830850388,4.070786312511173,78.2446687871133,3.790091991424561,2.501236906777609,1,0,0,0,0,0,-0.23745833305629835,0.11287126715630788,0.050368685147001935,0.046227959207614015,-0.05134308441404334,-0.17085332019519106,-0.06500461988063412
123,0.1171619834712671,-0.3643789534222421,9.625477028073538,-0.04187676705315264,0.02234530727291934,0.047372569635227686,0.8006783068579942,0.13525490717272248,-0.1922123953551838,52.347368067935726,4.920557862717469,3.379279697075592,4.030927760030236,77.92168266540291,3.790091991424561,2.5003873037794624,1,0,0,0,0,0,-0.2393752359262263,0.10531414587830826,0.062411942780441515,0.04267815850455525,-0.03073156129962325,-0.1749300500094136,-0.07684231788265948
124,0.5788874498328382,-0.5522881299828515,9.710398093850227,0.04664346696454897,0.09939826792155117,0.07136540168572242,0.560436361808838,0.2444597260725063,-0.6906014473712132,52.34737194632715,4.920593218559289,3.078228049173423,3.965961323330669,76.59452397815805,3.790091991424561,2.5001212736645164,1,0,0,0,0,0,-0.244781379442608,0.09437506081943983,0.09438486312778507,0.08369664979581161,-0.06540160918613919,-0.15649064204505028,-0.04092134219077655
125,1.1546423380300543,-0.4542087641983862,10.265231163279447,0.10280065274754174,0.17522611296510665,0.023168254869040162,1.1746940511789623,-0.08467580896546067,0.1106551509729362,52.34737578280964,4.920626938602512,2.9059098936652905,3.9867089267184435,74.3075292518549,3.790091991424561,2.5000379735558633,1,0,0,0,0,0,-0.2577074583453335,0.09136792936687184,0.04749139953898902,0.12816813804423582,-0.17444059051185934,-0.08653358377544422,-0.019456710140051226
126,0.8926174272361602,-0.5787203454920904,10.4297262009142,0.01083028175095424,0.08528460403456185,-0.022931224096809776,1.0515477043308052,-0.28506896616165844,0.3747093448101938,52.347382114920386,4.920660431052882,2.7679442834259884,4.031929555529008,71.84621414991334,3.790091991424561,2.5000118903881616,1,0,0,0,0,0,-0.2659521004032385,0.08986946711418034,0.03208067564254823,0.10229717074066187,-0.12958811387908928,-0.08328922383669833,-0.03829374069193775
127,0.20419434523298066,-0.2890879713508062,9.841214428202447,-0.08539548356674204,-0.05465221612677936,-0.04503006613960756,1.0414162661769697,-0.13495673023341995,0.2334723517701885,52.347386790644656,4.920693211931047,2.6269083211182864,4.044840744769961,70.86725137426934,3.790091991424561,2.500003723152268,1,0,0,0,0,0,-0.2643873907015189,0.08843532488968606,0.031188148435153468,0.03512435113158165,-0.038618420566460664,-0.13946150500022134,-0.1245808765803106
128,0.3452906370542005,-0.034817028307445715,9.31515337434663,-0.03444601104212279,0.076176879765413,-0.034776995292484625,0.7936449683887621,-0.181862013440047,-0.05074014959212434,52.34739340979997,4.920725755545019,2.485053035055285,4.048527089077866,70.15750563552905,3.790091991424561,2.5000011658040613,1,0,0,0,0,0,-0.2701480883873329,0.08692512480470896,0.02078145983199628,0.034654529739502685,-0.10009945071154497,-0.13551806548808631,-0.08556009144752398
129,0.6475821505840729,-0.5201116519755287,9.91659798745238,0.0367564385438373,0.13016465569696375,-0.044456606566044915,1.0727298351761403,-0.3132885793747193,-0.2583163445466223,52.34740069366397,4.920757902204219,2.266258630916316,4.049579597417943,70.02860534553122,3.790091991424561,2.500000365039894,1,0,0,0,0,0,-0.2762968460778982,0.07924684469585745,0.032155128182494865,0.10967725703478548,-0.14126977512872985,-0.09530537118099848,-0.05914423066156242
130,0.8001371814962996,-0.4852002412006651,9.809572479160172,0.047570666743411004,0.07906556395690978,-0.040667138130109866,1.3353996718388348,-0.12463471569334665,0.046044435654748084,52.3474056949149,4.920789916504185,2.026933102852944,4.049880104834887,70.00519515247954,3.790091991424561,2.500000114302333,1,0,0,0,0,0,-0.27536572283348804,0.06841077942688238,0.03370266654639571,0.11045841741616266,-0.12861066747579994,-0.09032954620802636,-0.0934694898628615
131,0.7509428371009781,0.1589599078714476,9.732926042098416,-0.1265872318798147,-0.024365207023498786,-0.03141980394426633,1.1565910393063572,-0.4670845818863816,0.20250075575562854,52.347412425409594,4.920821886670741,1.831239158735999,4.049965904352287,70.94208781049058,3.790091991424561,2.5000000357906726,1,0,0,0,0,0,-0.2710090531213975,0.06662238578227063,-0.015843228162371603,-0.0018775186131494046,-0.09103818552791933,-0.10887413840077513,-0.13815188285764593
132,0.4822924021503698,0.2492440961645239,9.009646955122838,-0.04922705541220088,-0.0882691334700943,0.04850736768207271,0.8320456005597965,-0.12899045173339335,-0.4999239314712938,52.34741974735481,4.9208538421216055,1.6471883945396937,4.049990401442112,72.05338562408228,3.790091991424561,2.5000000112068776,1,0,0,0,0,0,-0.2641200486186305,0.0569950065964273,0.02872950286753761,-0.02674053383507166,0.0073192131795512825,-0.16069054484433593,-0.16709634029919426
133,1.4015081383415933,-0.20034206304129645,9.718023528531091,0.08522806085942394,0.17091699965072893,-0.010916964288039288,0.7487472834024347,-0.0887997194825314,-0.3219777242261945,52.34742476163061,4.92088579266572,1.4472933460953863,4.071431740751248,72.541647282153,3.790091991424561,2.500000003509129,1,0,0,0,0,0,-0.2737405797510511,0.04710842129984254,0.028483151076298813,0.10547759848397847,-0.16998215828734972,-0.07408214813569626,-0.05190324120735095
134,0.3630062895608219,-0.14109491215423708,9.402886700113216,-0.015675777791840758,-0.038141078623563085,0.05066814444186383,0.4096222261030012,-0.07004133579777742,-0.4056806348160138,52.34743149658017,4.920918059415959,1.2431702488212095,4.0989882605974985,72.91675638890537,3.790091991424561,2.5000000010987886,1,0,0,0,0,0,-0.26720555155593945,0.039095274286355286,0.048253767580510976,0.008040056304925889,0.01951770634534596,-0.130347821609682,-0.11284980682390992
135,0.7046468238223212,0.09306026807273204,8.947648015377945,0.005754470078509028,0.048594494419335284,0.059629946688106124,0.7214346754456606,-0.3484246912474114,-0.11919150343016982,52.347436310086756,4.920950113758667,1.1326957747392823,4.103283569006426,72.28925551333752,3.790091991424561,2.5000000003440563,1,0,0,0,0,0,-0.27322074012951425,0.03860239908024876,0.008077973758335223,0.0011256807951673358,-0.05718996214286799,-0.1018913070843501,-0.09492125025454476
136,0.8500025500789651,-0.3062837550272076,10.022101677695368,-0.02249758771674421,0.004024071637330928,0.059939163159673924,0.6966321132646812,-0.4149870217911642,0.3378984151092176,52.34744297636754,4.920982097276939,1.0472113576865134,4.10093744162066,71.47966588341497,3.790091991424561,2.500000000107732,1,0,0,0,0,0,-0.27591898847179513,0.03222832740340336,0.018733957254776272,0.02583651495830613,-0.03710632970247105,-0.06212411505549415,-0.07086521157958718
137,-0.048051505605537725,0.01109798783747834,9.369635854595693,-0.187987624427272,-0.018792111482527282,-0.06053327630411694,0.4629250326037255,-0.5657828337706545,0.10228799757366004,52.34745027634979,4.9210131036531095,0.8591885500873646,4.103840090348939,70.39148817656366,3.790091991424561,2.500000000033733,1,0,0,0,0,0,-0.28051407258226024,0.03576237890724274,-0.012852265529216495,-0.036366009694145836,-0.03102140510084225,-0.1037764481376175,-0.12281921149364905
138,0.6933154307437192,-0.2900089118562817,9.977470254764864,0.10162520786446072,0.0747798644305771,0.021949911883778025,0.6208190239538608,-0.5485084606336778,0.2368931913012715,52.347457793075954,4.921043784214376,0.6438033627567958,4.108241345874036,69.25271476769403,3.790091991424561,2.5000000000105627,1,0,0,0,0,0,-0.28814469027136136,0.021526630107212563,0.021966236284769503,0.06145709595794044,-0.06372672980922132,-0.0404083184326518,-0.04608202938307357
139,0.034518362939124685,-0.4077491365671257,9.839948181995334,0.0570123455957365,-0.14528566091028208,0.07514585094041885,0.43513240671911335,-0.4172171159377561,0.15365764668700252,52.347465383934704,4.921074356137041,0.5251109032814271,4.116642640534762,68.75946313644579,3.790091991424561,2.500000000003308,1,0,0,0,0,0,-0.28300745815993594,0.014390621292436541,0.056182942428403236,0.001903893860998883,0.11119523174161193,-0.0863136247520539,-0.10925403404105606
140,0.10436212192765018,-0.06801419177212725,9.752213432087109,0.05935848223754892,-0.051526978630568716,-0.03800560914998007,0.5735799450172931,-0.08356817162944696,0.13187036486741205,52.347473000148895,4.921104891835621,0.4322208860164649,4.12618634895557,68.38344777699676,3.790091991424561,2.500000000001036,1,0,0,0,0,0,-0.28618224691882443,0.01469857736129484,0.04125355666445177,0.03843965945722815,0.012932033288981449,-0.0917307919401578,-0.1336245777002869
141,0.04724469956492964,-0.004045233085075456,9.361585346966224,0.09240225996665166,0.1195154754262926,-0.003422342213221144,-0.4797516042377104,-0.2141469682984189,-0.2671855719884889,52.34748062503538,4.921135097613554,0.2807500042320549,4.150345570393983,68.2333143233754,3.790091991424561,2.500000000000324,1,0,0,0,0,0,-0.29190976855298834,0.01084566056751543,0.04603898630119515,0.023613181547781702,-0.0178687562485516,-0.08333375828422004,-0.02620830375515093
142,0.11556952568186656,-0.2872409522418761,9.943677748853881,0.07371179915682581,-0.051566764232662064,0.023559156128025588,0.5110244168475719,-0.469998876912444,0.22307258249103865,52.347488252888034,4.921164875541667,0.11364681018404015,4.1786780876429415,68.12421059783273,3.790091991424561,2.5000000000001017,1,0,0,0,0,0,-0.29241473918406585,0.0040557245426137215,0.030907757316931343,0.03063006906227665,0.04248308058136787,-0.06013091799318353,-0.09674291223009224
143,-0.05910749641286245,-0.1302141989997351,9.951759296695208,-0.0984697455952344,-0.06361360973667503,0.046121623050060435,0.9261577209044032,-0.4726783402771077,0.32340051568616424,52.34749588175519,4.92119419296679,0.124361573374408,4.1153190751926365,68.51358838120548,3.790091991424561,2.5000000000000315,1,0,0,0,0,0,-0.2879169207546496,0.0078293880581774,0.01057520803351845,-0.01874414051781784,0.027040372562289968,-0.07036082948780634,-0.1384544581848145
144,0.11677789518416926,-0.22210891431617813,9.415509428562846,0.028604740177102694,0.09096133625168333,-0.1117675364532187,-0.037787505516758135,-0.15821610575648354,-0.7443381636046171,52.347503510969354,4.921223356843378,0.1825270625107709,4.025780541889811,68.99349775575308,3.790091991424561,2.5000000000000098,1,0,0,0,0,0,-0.28864999389563273,0.010583313354300204,0.05438657689441675,0.057558856872526876,-0.06613729304070179,-0.09250506331049677,-0.09019041312343122
145,0.42051425127000064,0.19091875890530766,9.603512705202716,0.01716874350969552,0.07270044561772279,-0.06145757549209301,0.6034433844399557,-0.3903073750585441,-0.322976907404268,52.34751114030218,4.9212527873634855,0.15815344348326654,4.043085106230007,68.99881909658161,3.790091991424561,2.500000000000003,1,0,0,0,0,0,-0.2888909184489181,0.011973174047067485,0.013081751536432644,0.030031479251364995,-0.09016269653742166,-0.07539732245749116,-0.11727199086058072
146,0.15827976213673206,-0.4851696880391114,10.182289494223571,0.037294184196197774,-0.03875844340158322,0.01869664001823157,-0.10852598436006856,-0.2731966949150515,-0.4988023111132069,52.34751876967562,4.92128230679229,0.11175426068268926,4.090894857823711,68.91794825359446,3.790091991424561,2.500000000000001,1,0,0,0,0,0,-0.2871954087485194,0.0025790938188831256,0.07261438799904665,0.03539746435041848,0.05502621501632456,-0.07935398692615514,-0.07845877343676162
147,0.3886438560848285,-0.04315351142516377,9.487648732294065,-0.0025239819816892106,0.10501463699166468,0.013075887070181737,0.8100767353505255,-0.5301079804073852,-0.2109573593259811,52.3475238891006,4.921311855866506,0.03065962591108456,4.104545281681705,69.3533753050384,3.790091991424561,2.5000000000000004,1,0,0,0,0,0,-0.29165021204325137,0.007170981592982698,0.0027024778821616554,0.027349156226033584,-0.08266481587063745,-0.05733248303486636,-0.09519424316091718
148,-0.1351998313581172,0.16716565280616372,9.31893685902025,-0.04029989058146945,-0.07436169715001989,-0.01010924791703968,0.6318178433279953,-0.6189125699609918,0.2591047866947829,52.34753066001417,4.921341414825586,-0.05969349213879605,4.108442688911226,69.88256342215138,3.790091991424561,2.5,1,0,0,0,0,0,-0.2860930950620185,0.0018501501979600668,-0.001632278607417017,-0.03800761097006313,0.027960156204500663,-0.08056650506464533,-0.14479223775134806
149,0.5657923330866909,0.18492186283210524,9.603409331990257,-0.06577538627816676,0.07178519476098316,-0.0943936999023178,0.35635454683702994,-0.4801597814702858,-0.4847877633601872,52.347537995783796,4.9213716127650695,-0.09709733955585846,4.141707317190458,70.51062345183591,3.790091991424561,2.5,1,0,0,0,0,0,-0.2902042856257999,0.005017275537616128,-0.012177480755241877,0.02169001158092012,-0.09804271009359457,-0.07427404522018273,-0.11915752965611948
150,0.38125796038795023,-0.10308914876021394,10.710730617719314,-0.128725767587786,-0.12514636012574726,0.10433185559837437,-0.022742262487265408,-0.6794689564438594,0.2687314421299079,52.347545524750274,4.921402023763983,-0.120371663367745,4.183356400796499,71.15664007852055,3.790091991424561,2.5,1,0,0,0,0,0,-0.2826529892726372,-0.005715894498575812,0.011416179476452256,-0.0557799026905392,0.09427095275205342,-0.05456664889177396,-0.08515072130944612
151,0.4634877108715403,-0.6581279819700013,10.821109458993128,0.029694205808362406,0.029948775122141363,-0.0061215428844559605,0.4369791786007947,-0.2643163882105615,-0.29831642714984125,52.34755311979555,4.921432823646917,-0.13918124139643154,4.223827212427484,71.4785625364337,3.790091991424561,2.5,1,0,0,0,0,0,-0.28892122310456536,-0.006535846529998064,0.04223229375212366,0.09894378828969372,-0.013767351588269413,-0.0418097884544963,-0.07718672324787547
152,-0.2828240300615482,-0.2910967008425493,10.1129264446398,-0.12791366931280276,-0.13449115883053506,0.05314902365164639,0.14912326435517348,-0.1415701002698901,-0.2770348310840479,52.347558227479325,4.921463753198002,-0.15679939064334125,4.263961949870522,71.74162471514974,3.790091991424561,2.5,1,0,0,0,0,0,-0.28148971138909484,-0.0064233643897879675,0.037596034152978686,-0.020000598686805825,0.12433352007607308,-0.1068579969032896,-0.14428134655232372
153,0.4095689341600284,-0.6229267024928409,10.376807074087036,0.02841141683474674,0.09959920437499196,0.012318882579093922,-0.12929774372744718,-0.417492083879784,0.02807379831113116,52.34756499437708,4.921494090300762,-0.08048699653438968,4.286138210935634,71.50296085020591,3.790091991424561,2.5,1,0,0,0,0,0,-0.291942791280001,-0.0057599791566397066,0.02587129531871479,0.07309595788181619,-0.019854419523765786,-0.029221523308856474,-0.0104933563549174
154,0.7688412843510104,0.1228122588253896,9.820964247786376,-0.0374605217964836,0.17186558752493952,0.012806760204191758,-0.7155864057658344,-0.4626493085898171,0.029370863047835892,52.34757232877318,4.9215245477018,0.020890769694545442,4.303187049116692,71.17318238252712,3.790091991424561,2.5,1,0,0,0,0,0,-0.29226083986268026,0.0016804096172026786,-0.013209040862154024,0.004465938887575309,-0.07286391656226826,-0.04481700528967248,0.012632234598198922
155,0.5015507419654628,0.4324138328166648,9.342983912605012,-0.16576798542295335,0.1732479695277426,0.0003981570696080464,-1.0310833833312705,-0.9497261742662126,0.4239945081168766,52.34757985726987,4.921555363056899,0.10844149484315734,4.340206614429549,70.04938641934271,3.790091991424561,2.5,1,0,0,0,0,0,-0.29730703806419584,0.010417598710396346,-0.06609352606285923,-0.07756422687155981,-0.07320242032019639,-0.044188677428753605,0.03231383038930236
156,-0.03132600636816185,0.5839124418177211,9.233054465611376,-0.19497291093554914,-0.028404436430730092,0.014461271925670122,-0.4958223075276597,-1.2866107364390005,0.8552529648185183,52.347587452154464,4.921586297766969,0.1923024863581182,4.382928131352993,68.78139141649011,3.790091991424561,2.5,1,0,0,0,0,0,-0.29794921821745346,0.015508548664553097,-0.08955184381255604,-0.13451779563642108,0.03633736663455967,-0.06443799416937224,-0.044558554313866926
157,-0.1158766440344143,1.5405182293920008,8.367871096916872,-0.4266033102246476,-0.2020008895523444,0.07962844902915217,-0.3383414699916171,-1.4510460177802136,0.5328222092334978,52.347595069745616,4.921616954432137,0.1314264945382942,4.384408612975019,68.26467123864947,3.790091991424561,2.5,1,0,0,0,0,0,-0.2924249129091757,0.022584055334335683,-0.1420592922740051,-0.2961220675308769,0.11067348573172124,-0.13664077810919445,-0.16367593823427454
158,0.44992320816986064,1.3168050191777274,9.170696179404047,-0.17588214666985247,-0.07740565086111181,-0.10866425996222656,0.8433318047886625,-2.341677677376752,1.540612154477174,52.34760269510306,4.921647518386968,0.03192742634634893,4.3741138001879065,67.88439364514046,3.790091991424561,2.5,1,0,0,0,0,0,-0.30806597206546066,0.02245575394752391,-0.2057572661774789,-0.153336670266772,-0.07759916890928611,-0.017901220330767284,-0.12136865851576685
159,0.5058414053690025,0.8720823959172089,9.521771605961076,-0.11318391538188448,-0.05336791348497272,-0.018587645454573948,1.044647720490394,-1.7466416326627452,0.8976529526742396,52.34761032311679,4.921677733586568,-0.006460981888618282,4.349740126830798,68.59279312424843,3.790091991424561,2.5,1,0,0,0,0,0,-0.3028882516955124,0.01568352341464071,-0.14024435979940136,-0.09323764326756463,-0.050297469390076496,-0.032729582357131665,-0.1275286916334646
160,0.16376640578880075,0.27987420001623586,9.177218574476091,0.13245897431729314,0.07398838887889259,-0.03202676750568563,0.6684581068660527,-1.2794556747971404,0.8732053368302025,52.34762046200138,4.921707832498423,-0.028542005109471632,4.32134638024076,69.49891241020354,3.790091991424561,2.5,1,0,0,0,0,0,-0.3020083415739335,0.004947855644810616,-0.06836293168032305,0.007277967176816608,-0.055897077719642814,-0.018162641389733468,-0.05067308812463001
161,-0.6330257041481391,0.6980608229302285,8.088894215962622,0.004308628080902183,0.07304258551268131,0.05280352674508042,-0.3305298312168197,-0.5161541192558005,0.14347271050985688,52.34762894971287,4.921738210477903,-0.16970928316505204,4.359681061356409,70.19542869727849,3.790091991424561,2.5,1,0,0,0,0,0,-0.2932517757490788,-0.0006346056530835072,-0.02960907427714111,-0.08771875981069276,0.04509043735164149,-0.11095203627020768,-0.07284629966880879
162,-0.5713976011801702,0.4556894503164889,7.999262873199337,-0.10585618415523744,0.057564934164647315,-0.014071342492066985,0.0568784802166617,0.2676892515839505,-0.5173150075140415,52.34763436271388,4.921768681508738,-0.34265473199218544,4.417067741095705,70.85387798956174,3.790091991424561,2.5,1,0,0,0,0,0,-0.29089991732840786,-0.005557463325899008,-0.008219490433295656,-0.035743856098367235,0.02181576167133879,-0.15287683349386472,-0.16269474460037947
163,-1.351926783017806,0.4126919316562048,8.410305803435493,-0.06913100299660148,0.0614120710351315,0.1088188508273408,-0.7173286600210114,-0.05498136672952741,0.3846654992932412,52.347641234038804,4.921799501408507,-0.3380852024806837,4.4405971942326765,70.89162481168044,3.790091991424561,2.5,1,0,0,0,0,0,-0.29018659986886297,-0.011978806186069078,0.003313379356415273,-0.09837349052827124,0.12885800027278085,-0.12303761197466699,-0.05611802205376785
164,-0.9593965090875752,0.1640085486496901,9.356213401081176,-0.039854255498882094,-0.050951894239238515,0.056699830986223124,-0.1687521203890905,-0.2998838439771237,-0.22401806972400784,52.34764860415196,4.921830437633936,-0.28614578331678403,4.454460225982052,70.81664291414727,3.790091991424561,2.5,0,0,0,1,0,0,-0.2921363323770137,-0.006699764442847117,0.004343431195156104,-0.0423095876005918,0.13808237515557262,-0.122106708039917,-0.11382557278794328
165,-0.370176788175925,0.3561367200884539,9.717581624383477,-0.009289979792202177,0.16950039243779932,-0.05700651324906735,-0.5656262831408294,0.010107333873932922,-0.42694863026997854,52.3476561448649,4.921862366173238,-0.2645671433008689,4.612032618301389,70.18923615340529,3.790091991424561,2.5,0,0,0,1,0,0,-0.3033828796566041,-0.0021562956274561933,-0.02203830452883478,0.04144073528397716,-0.01831450275086046,-0.10241319681998877,-0.05580533900652485
166,-0.3233249012493919,0.460306780828624,8.8873608050089,-0.17420290493576934,-0.01805546076554343,0.07699545689213337,-0.3990649062214534,-0.19235498636001566,-0.5849134692885707,52.34766625389013,4.921894625586266,-0.2510902802249104,4.8106359160388354,69.46150089305722,3.790091991424561,2.5,0,0,0,1,0,0,-0.30505465861139885,0.0017287474167617595,-0.06213761791991251,-0.061674751700847526,0.11217853675337534,-0.1478752353424359,-0.124609790844971
167,-0.4779813902977254,-0.03184578023473317,9.520499065737164,0.2143606964938857,0.10937527250570384,-0.05294111732192422,-0.5881270855563595,-0.16804053330019267,-0.5553325686281108,52.347677241351214,4.921929855904624,-0.3230212544201157,5.006664835947434,68.01991203462504,3.790091991424561,2.5,0,0,0,1,0,0,-0.32286076064939945,-0.0040089255616265465,-0.03451265331749141,0.11811505713461735,0.07202063146022476,-0.10121299109501702,-0.04013402885393472
168,0.2254512417552532,-0.3431314031251721,9.094474564594696,0.003184294161880236,-0.037442297418508665,0.015288735730165204,0.7952992259445176,0.2443905315210763,-0.7790010272161004,52.34769103922464,4.921966076831447,-0.4177432966492604,5.2019587311515965,66.44868308215965,3.790091991424561,2.5,0,0,0,1,0,0,-0.327811446229945,-0.0032775666209219137,-0.068907175880679,0.12183418058620267,0.08923005615890342,-0.12998424490927404,-0.1859382889531095
169,-1.2108427948113043,0.8608710592594009,8.937534319771029,-0.221352016555021,-0.18030001303776566,0.05831958020914381,-0.19716082852974515,-1.2852005219951488,-0.24356917217870744,52.347700778414364,4.922002945905569,-0.4630198429700849,5.339883717117028,67.2272218273457,3.790091991424561,2.5,0,0,0,1,0,0,-0.3299428172194614,0.008750062287334125,-0.1855529060597679,-0.12448963017783693,0.2410912073225703,-0.15737998297931174,-0.16312024730912505
170,-1.1669591230788676,-0.13439270796716452,9.340843309327774,0.12866959094730662,0.018287903071739192,-0.05073901636305718,-0.370385896196442,-0.2805046194764138,-0.7100298280485975,52.34770912941883,4.922040348937913,-0.4951018756319483,5.461429332497199,68.43251927303687,3.790091991424561,2.5,0,0,0,1,0,0,-0.33477105124188145,-0.0039049147321371523,-0.09151486889558902,0.11455077868221895,0.17116316138150958,-0.1359487591072604,-0.091378385425024
171,-0.09892592987802362,-1.070751712136566,10.37271142970224,0.2647957378539844,-0.03758994566471497,-0.10427929644531188,0.6740902242985934,-0.3042663475986915,0.7172304883301399,52.34771951558682,4.9220798370647385,-0.476474085757291,5.66046360046832,69.51072607625161,3.790091991424561,2.5,0,0,0,1,0,0,-0.3410284956587873,-0.014632278662348681,-0.11429912076389012,0.2618830876407805,0.12472807563568275,-0.03573458143191584,-0.07699605680380861
172,0.6312628574952359,-1.7941026640198814,11.011093058654984,0.5209762018304602,-0.16787009676864936,-0.06562349114269019,1.1301765867220976,0.5764623040744423,0.24602787175039426,52.347728087876256,4.922120020438305,-0.4443143965369942,5.881622418457548,70.56585134508434,3.790091991424561,2.5,1,0,0,0,0,0,-0.3390491832965917,-0.02615454839831693,-0.04190880208626671,0.4153103025263271,0.21126732132644827,-0.04969016847363944,-0.12738326149316062
173,0.8083077814596583,-1.6705250484358078,10.489493394980943,0.1832374652818291,-0.04470819072194922,-0.10548896089929076,0.7072425819614865,0.5975727737493943,0.03346849737543245,52.347736039767646,4.92216075347477,-0.4100653663607061,5.95191169186459,70.880230443217,3.790091991424561,2.5,1,0,0,0,0,0,-0.3418878215379369,-0.016668104303069385,-0.09933596273449984,0.3538141830412165,0.11381377037342988,-0.06347282331201992,-0.11390935806242773
174,1.7582057414125951,-1.4833963327214987,10.127718749575212,0.06286483353993197,-0.03484228730319279,0.09369696884632013,1.0015499677604387,0.6240029509432539,0.024150592411348367,52.34774628942761,4.9222016697889455,-0.37525879534218703,5.979125035140313,71.06008535964989,3.790091991424561,2.5,1,0,0,0,0,0,-0.3385707908719461,-0.016235353450049964,-0.12436895397748628,0.2882490787798557,0.10484441029536748,-0.05933559629673508,-0.1133246465988379
175,1.9625374513362068,-1.5727368506104522,10.047367251875967,0.07764917681705012,0.13677985516618069,-0.07981229728480524,0.18598078941207,-0.3198035795092265,0.14242789739181888,52.34775481502743,4.922242329372393,-0.3995723905889437,5.922591490002085,71.25642421795979,3.790091991424561,2.5,1,0,0,0,0,0,-0.3494234341961101,-0.010623466407432969,-0.1750203609649216,0.3063624435710174,-0.032372581363244494,0.0029325909615399645,0.0048010444120413906
176,2.2644283441075244,-1.7274459643791558,9.94180295416642,0.13725842188754245,0.19271354461140985,0.003288623333449717,-0.0022898486501412296,-0.22222835606533747,-0.3216274318140514,52.34776526091198,4.922282903352434,-0.4396622080927042,5.8421465716822825,71.45576304692275,3.790091991424561,2.5,1,0,0,0,0,0,-0.3470036943608279,-0.014664052416012341,-0.14082607257463906,0.3165260781925211,-0.035905000272656265,0.0057224659332889005,0.04007204540865781
177,1.1143693280160103,-1.213946600385675,9.74450006975466,-0.03581174830166964,0.07701423134448411,0.008991844755665817,-0.6586189022981129,-0.5962337411463168,-0.9452865982542354,52.34777385362619,4.922324402315807,-0.6454124902346694,5.829895475253438,71.12368880525034,3.790091991424561,2.5,1,0,0,0,0,0,-0.3455158718646685,-0.012467228064858277,-0.1540867778244439,0.18767914320056872,0.08504249768919195,-0.058062871726824276,-0.003116226308389581
178,-0.09937317220055752,-0.5294540480561333,9.261042450422632,-0.054906108728428576,-0.15243628584313912,0.06994692515416356,0.024812705313342343,-0.8746215449897363,-0.9550031239566492,52.347781812503435,4.9223662097024485,-0.8953693057167832,5.83711511085549,70.69510835906584,3.790091991424561,2.5,1,0,0,0,0,0,-0.3417030958074544,-0.015100339408232697,-0.17282749796404068,0.07787578828732314,0.2468026804235176,-0.1203923699703332,-0.1342531528727803
179,0.7469595774580733,0.567470643125806,9.675961007536149,-0.1381830607607067,-0.15678643396125708,0.02029484257210202,0.5509240257014132,-1.725082693470413,-0.19248611593368725,52.34778955459043,4.922407802086468,-0.9886470309192906,5.785589884619082,71.23106077412567,3.790091991424561,2.5,1,0,0,0,0,0,-0.34290246241420186,-0.009392898832623252,-0.2831723518119361,0.0010143022687285359,0.12950102024338048,-0.07521799589546149,-0.15937886608245252
180,-0.1243898692947315,0.6349604523030603,9.956988751582255,-0.05651457245766268,0.005095197032150861,-0.00479613415877661,-0.1884268768152169,-0.7295592825420254,-1.0586450244192154,52.347797222528975,4.922449322780753,-1.0401148815743302,5.717292432039565,71.94218657697856,3.790091991424561,2.5,1,0,0,0,0,0,-0.33670197646423305,-0.0142564766919352,-0.19632034478399865,0.056493621032409236,0.12148837831602195,-0.12506623560236466,-0.13077420308996404
181,0.11007778387611178,-0.8389601562830706,11.174795183708286,0.1905280136103508,-0.0200435008945696,-0.0097603279976217,0.12299556091792944,-0.5065047869953354,-0.4695134411237351,52.34780486510667,4.9224892303599885,-1.1022622229896235,5.665640594327158,71.49846408085553,3.790091991424561,2.5,1,0,0,0,0,0,-0.3396023452577567,-0.03187170244757278,-0.1085342944534883,0.22373013766141436,0.15453433459727134,-0.044372442086797914,-0.06440890644227815
182,0.09061200660304254,-0.15440931107749234,9.989690703226687,-0.04640113854411912,0.10553599919494014,-0.00502147240267663,-0.23949539548165175,-0.8123734147490778,-0.07239949332395462,52.347815008972546,4.922528282225468,-1.1672594749763818,5.6187413372230735,70.8450103513945,3.790091991424561,2.5,1,0,0,0,0,0,-0.3420402438839789,-0.025894000324527808,-0.18110949455757427,0.09931080280888673,0.06468605929894096,-0.04588855496435548,-0.03849171097320722
183,0.6468066270378781,0.0977375768560348,10.594596287849653,-0.06237462803582386,-0.00176998817635525,-0.0007406629550665601,0.5600326470225969,-1.365412758782522,0.5180448614186022,52.34782349838778,4.9225670487646935,-1.2119867528617043,5.598206205524229,70.76725528055904,3.790091991424561,2.5,1,0,0,0,0,0,-0.3428038502878075,-0.025114537149174974,-0.23160595014243485,0.07865817139306923,0.05020653085041115,-0.008484745738170131,-0.0819919576276878
184,0.41466634912008943,0.4291519836951703,9.173701451974287,-0.14119955568071418,0.005719067846462624,-0.01205020807657407,0.43644911648307533,-1.0528295383796649,-0.02871067948049466,52.34783393189617,4.922605720165713,-1.2513050735371922,5.585198098877684,70.79405557370491,3.790091991424561,2.5,1,0,0,0,0,0,-0.3398570357436398,-0.02264337097787171,-0.2344173255701002,0.027945304431720618,0.05005573626150337,-0.06843587885718444,-0.13556584356526075
185,0.8628384981837915,0.2193589892955084,9.467909197539363,-0.06284450336999288,-0.07154590009056062,0.025028929692586542,0.3524178759754307,-1.2205992663242493,0.30334643970914393,52.34784252037738,4.922644042001959,-1.1979383079763068,5.556477233740493,70.10329043865526,3.790091991424561,2.5,1,0,0,0,0,0,-0.3399629796315461,-0.025988221152868904,-0.22103284866891226,0.03437361050943682,0.0896528262834738,-0.04198669771882108,-0.11385680962150325
186,0.5328424462063768,-0.07073587503742465,9.399785999380702,-0.06372899126066063,-0.14869862113251953,0.03841074649026671,0.4835789317331266,-1.7648159450336551,0.3284532538897996,52.347852987769144,4.922681929438316,-1.1198385179206405,5.523270132924889,69.28221108650038,3.790091991424561,2.5,1,0,0,0,0,0,-0.34285334525381994,-0.02134000866295107,-0.2260683920633694,0.013351532938982016,0.14426807149644907,-0.034120350208963715,-0.11169884305665352
187,0.3331507430697962,0.020435457916253192,8.737174196222181,0.10485402438265072,0.08541464452645142,0.09028262829741612,-0.5416011986921718,-1.099948052258219,-0.01767634918534711,52.34786158783944,4.922719989872082,-1.0506434346615745,5.460202447903379,68.02827212282854,3.790091991424561,2.5,1,0,0,0,0,0,-0.3439900553339013,-0.024330004879206377,-0.16061667189683787,0.04387975670550368,0.10300032650673473,-0.04677369813787593,-0.003463040337612341
188,0.4903970869720002,-0.2384188398308181,9.407216251949515,-0.016937520601361666,-0.0618614395035042,-0.03085225978149192,0.07424657151385794,-1.5988906788067152,-0.002271339749476449,52.347872059195005,4.922758107989507,-0.983824573298203,5.3886094447399735,66.69571947201867,3.790091991424561,2.5,1,0,0,0,0,0,-0.3476207975680593,-0.015650156573967292,-0.18883496053315302,0.05074056471595989,0.09329984604075588,-0.03374320871580879,-0.07604001232970192
189,-0.4409221435349258,-0.4279174118900945,9.243547109670928,-0.06270372508054126,-0.10376971918257052,0.08747720279865398,-0.7536528188958267,-1.354459491379074,-1.0027650583995558,52.347883170583366,4.922794338287488,-0.9787661631487271,5.271712959924237,65.83991932200767,3.790091991424561,2.5,1,0,0,0,0,0,-0.3415052569148995,-0.01632243069563455,-0.11143508344624076,-0.009373078753347894,0.23170741162813446,-0.09481353499879856,-0.06277906983265549
190,0.7704702440729152,0.09061636098387166,8.818806179297338,-0.2046581771941827,0.16328723763014405,0.042533662359895405,0.15159438317301274,-1.1158847664065294,-1.0214878244074412,52.34789199091878,4.9228302569596565,-0.9901885355577996,5.141881970791978,65.07070445494493,3.790091991424561,2.5,1,0,0,0,0,0,-0.3450416843840365,-0.008077636579624452,-0.17043584376848833,0.012921162356812474,-0.04726334256792452,-0.06363435707215087,-0.07765674579213996
191,1.414125757438293,-0.061688794792683126,9.139664571683822,-0.03376773360250352,0.11436319512467845,0.08857037375414192,0.4072856602527443,-1.0654034961401455,-0.26019801623526284,52.34790504757361,4.9228632111444535,-1.070154248740108,5.136965072680923,62.06665529528686,3.790091991424561,2.5,1,0,0,0,0,0,-0.35228722970780696,-0.01742622472379679,-0.15425084844014555,0.05277727097834528,-0.03289694964207271,-0.016295862442403292,-0.058212834261055724
192,0.4122748189539371,-0.16907107021200454,8.492754130805732,-0.11772294896403684,0.029897614923748362,0.3053652485914323,1.143756702590731,-2.237117158551005,2.002814674069627,52.34791704320784,4.922895176860765,-1.1684108466338148,5.167712739705639,58.65672727973893,3.790091991424561,2.5,1,0,0,0,0,0,-0.363470641140727,-0.0211536923368809,-0.2280378135613213,-0.0956622368282233,0.08486483574532784,0.05898904672998171,-0.002253255633724267
193,-0.08284476776806665,-0.249178759201226,8.994249429201048,-0.13811737478651967,-0.06741168031768978,0.06511054324750322,-0.8140829521982758,-4.161714119187163,5.230425226700528,52.347928675942825,4.922925859458898,-1.0627544927664947,5.1157604623922905,56.72801891694753,3.790091991424561,2.5,1,0,0,0,0,0,-0.37683573797161946,-0.022560521577308968,-0.32495545210425514,-0.20938733616260916,0.1203016145794956,0.20386174838715693,0.20926306751551013
194,-0.21771832926972792,-0.6641721692735028,10.231442652143352,-0.008828811310944013,-0.2481635548248909,0.11852134315494385,-0.1046342086366714,-3.482975011591675,4.023726398183365,52.34794269451829,4.922955796376299,-0.9026840348077184,5.040196412016329,55.068318758953716,3.790091991424561,2.5,1,0,0,0,0,0,-0.3712616008091781,-0.01995809037824787,-0.22374817471610092,-0.12393008945395395,0.23718898125515414,0.14880766151355193,0.10091642500527878
195,0.4541054222568808,-1.5188148810160451,9.953719923363924,0.2346070189197745,-0.03502569086698934,0.05236456429881668,-0.025532220335379843,-1.7602585261433434,2.0934799408267666,52.347955019156714,4.9229851668142635,-0.8050372576982651,4.911448959270452,53.293796781201095,3.790091991424561,2.5,1,0,0,0,0,0,-0.3714482820634509,-0.02291732152055391,-0.0747833129669627,0.10213371240821953,0.11646223844856905,0.1022501410996213,0.08546239022399603
196,-0.19417636803491312,-1.4508145323787598,10.00067284006866,0.12385203113239705,-0.007702826148756208,-0.0031489331653894725,-0.08220493703401369,-1.522554514304215,1.8559151631966284,52.34796927438282,4.923014348367271,-0.7240482023425003,4.767516822221483,51.49842459004429,3.790091991424561,2.5,1,0,0,0,0,0,-0.3706713300420433,-0.015848030631529716,-0.05314624686090297,0.08291656955989804,0.10046006359413023,0.07408474784854112,0.0593982853543041
197,-0.18408427043510767,-0.7920639363060453,9.791522394964453,-0.012528390405489713,-0.019675041791185902,0.18925710489135647,-1.2213677420993805,-1.2679373503433,0.7624057337188141,52.34798418992482,4.9230421955702734,-0.7561963007915127,4.737139142484215,50.02661792236714,3.790091991424561,2.5,1,0,0,0,0,0,-0.3661582500679145,-0.013543350504596305,-0.025145443575957792,-0.04782994611780438,0.19550504929849047,0.0043204895905492036,0.07320892954127077
198,0.110989320411353,-1.3279412662024752,10.665791717330949,0.04284951296666978,-0.13955047887320693,0.07768481332341752,-0.11902732870071132,-0.7631961076386883,0.388328295794105,52.347999331313616,4.923069280009977,-0.8185351037023583,4.739183017379605,48.61357864600027,3.790091991424561,2.5,1,0,0,0,0,0,-0.3690653271380021,-0.01597825389092589,0.010424493164290592,0.07623859518946513,0.18530031965979848,-0.00169298517347094,-0.04202598358183473
199,0.32808940255050234,-0.6376296799823293,10.230061409422255,-0.1472757693275865,0.002585693349692636,0.019223621015980876,-0.9239335862600716,-0.3645133133145675,-0.152526910978395,52.348012039986116,4.923095156589864,-0.842751714257252,4.718332230276934,46.96569744161233,3.790091991424561,2.5,1,0,0,0,0,0,-0.37206331668863296,-0.008690331900999972,-0.010531180186273895,0.021619758178915472,0.0856479812579501,-0.04000547668004742,-0.036097940401823465
200,0.2193856043409917,-0.6253847450062642,10.278723143682694,-0.035155860890887285,-0.2292661036993084,0.11619896514551832,-1.0755552794598282,-0.2767376391411127,0.25590568021512106,52.34802642656282,4.923120312582908,-0.8567954139845083,4.69094432222346,45.275162358908965,3.790091991424561,2.5,1,0,0,0,0,0,-0.36796866988600624,-0.017322931344179122,0.03236244766516938,-0.022432514459654114,0.25855907234636377,-0.05624402310743326,-0.06912510175049791
201,0.2671339494392717,-0.9577509596006272,9.99561782931416,0.12444117756653385,0.032269389624087964,0.016020672653299498,-0.8003371170752566,0.03064446500355517,0.1846750244879596,52.34804389699277,4.923143956937095,-0.9820292060795921,4.733138690204426,44.190669645739106,3.790091991424561,2.5,1,0,0,0,0,0,-0.38071679671745856,-0.02039653378303532,0.03977689061850587,0.10953646079731516,0.10046751815873366,-0.019186902313735533,-0.012274895436036857
202,-0.03766580551787063,-0.20761400278398826,9.76915063131031,-0.1558371283694055,-0.09464209265744616,0.045364230919917516,-1.9390069247810184,0.4047775704949148,-0.9393019304592456,52.34805991222591,4.923167415097828,-1.1369340853989676,4.795199874665547,43.216243161811406,3.790091991424561,2.5,1,0,0,0,0,0,-0.3766114953230045,-0.017833874436528858,0.040226683239639856,-0.028887119088661962,0.21039520762887048,-0.12203221378978575,-0.08422446103431007
203,0.4811401552556949,-0.5663185172063583,9.949055389318804,-0.06528361765549506,0.08677022836204834,0.03513216652688477,-1.331382681329566,0.011248596952752266,0.5741020898588935,52.34807793970269,4.923188904121568,-1.243307110430127,4.720036232896764,42.71192071664618,3.790091991424561,2.5,1,0,0,0,0,0,-0.3846653205029079,-0.026091382736876147,0.005798380730202711,0.030505339593111733,0.06298667718029932,-0.006238254642467868,0.015086023448167696
204,-0.6869457168578947,0.030675831526923106,8.956923050907939,-0.22190949070930932,-0.1359593631333139,0.012141919518532636,-1.9066008322602728,0.349585494896652,0.11639381174201953,52.34809414546167,4.923209736563038,-1.3367294053100909,4.605692779908791,42.29297297381258,3.790091991424561,2.5,1,0,0,0,0,0,-0.37268395110689545,-0.02665323505114308,0.034490194662683916,-0.10801817964715783,0.2263808903292439,-0.11413464054703175,-0.1023296651109655
205,-0.5538302213836347,-0.02097445786325698,8.392410547780335,-0.0702358965964689,0.0075501709889574655,0.03204999763117713,-1.6274277929366303,0.7614895561963261,-0.4657253713592858,52.34810972814138,4.923231303602612,-1.3229033486700574,4.594480640505842,41.60309694444595,3.790091991424561,2.5,1,0,0,0,0,0,-0.37597442961252936,-0.02615468808830591,0.06439999483994974,-0.03829617501532248,0.15941584275764328,-0.12420206887134175,-0.09251467000808533
206,-0.16522213498138355,-0.12072151587101553,8.950411476370244,-0.2135867962918724,-0.1154342420787382,-0.019880914243525984,-1.1244953804342357,0.7659719684748503,0.7085901806141721,52.34812760767257,4.9232531155840515,-1.2804581461419018,4.612713746227653,40.864016343925854,3.790091991424561,2.5,1,0,0,0,0,0,-0.3757440281965729,-0.02741594389339321,0.02930387801920734,-0.051610179773750216,0.15349256286116136,-0.09086241909104252,-0.13730995910336605
207,-0.24810517810151375,-0.24062199084609134,9.170229221736069,-0.10206806340241864,-0.06867093169465263,0.07464825123732703,-1.936776397837424,0.956758134361656,-0.011062976206267616,52.348143762829984,4.9232743735536415,-1.4001961086072003,4.560760872419296,42.16196261014164,3.790091991424561,2.5,1,0,0,0,0,0,-0.37019326478369424,-0.036709758501525865,0.09086549234198192,-0.04420507389397002,0.2097484319034016,-0.10309461951878396,-0.07454285398839189
208,0.8436957776764618,-0.8397465958308378,9.402824975055518,-0.058999924260658476,-0.022358180580282692,0.11713461876732592,-0.7421184710945432,0.8305789223483536,0.9721164490745078,52.3481593282025,4.92329544679542,-1.5632126648064932,4.488768815441424,43.82986298741928,3.790091991424561,2.5,1,0,0,0,0,0,-0.368577541142736,-0.04980133505002085,0.07332180682897071,0.027324248181919083,0.1055157352672738,-0.011697881366923945,-0.06000704446351821
209,1.322709369009865,-0.8788814478901639,9.965775794464475,0.0895678947507279,-0.10509846323471683,0.02394599692857094,0.2276098855319157,0.5192720959315575,0.7616646357215086,52.34817469185182,4.923316776284406,-1.5747141676714858,4.618255747062136,40.94107765710312,3.790091991424561,2.5,1,0,0,0,0,0,-0.3837904530873025,-0.04348160391852986,0.04357699201645706,0.11596341764214993,0.07696595980922921,0.004336450294311761,-0.12828715353345213
210,0.5506627632464428,-0.6979247423130603,9.533397659693119,-0.020368430256580625,-0.06805659157327583,0.1101088887285496,-1.3288517119184275,0.4398054526831451,1.2020252439636423,52.3481924964684,4.923338191215582,-1.545783950859687,4.8052680474867495,37.2247279007859,3.790091991424561,2.5,1,0,0,0,0,0,-0.3961196553193396,-0.04141145497536055,0.03224181162485671,0.009673905578220102,0.18074735665314506,-0.010685950180853871,-0.0235333818475034
211,-0.0923750015704624,-1.2064396335518373,10.2775177299106,-0.022308335688926748,-0.20564095928554546,0.2431694479219491,-1.3308366424512488,0.4676993727911377,0.991083137277745,52.348208626002865,4.923358363267451,-1.538999780390599,4.8836698023789085,33.97186918653864,3.790091991424561,2.5,1,0,0,0,0,0,-0.40245817365952347,-0.042461448050769915,0.07804677709234564,0.0002733033176555209,0.3457088305708361,-0.02647153385056455,-0.030471509830130424
212,1.4269457876939668,-1.174909777512303,10.885164266119853,0.11724055410011805,-0.0010122998143480557,0.0457270302794634,0.14639147772105401,0.8470173848765004,0.9976923111910732,52.34822669257394,4.923378120897914,-1.5381252845940896,4.931061565950358,30.80318883976565,3.790091991424561,2.5,1,0,0,0,0,0,-0.4207804817801968,-0.035462391405278834,0.037559570137247054,0.1941929881357622,0.056728620118606674,0.03310826745977506,-0.07389836091816558
213,1.3101516132817117,-0.8184100790753069,10.500874890650849,0.05048398345039797,-0.010313470398030222,-0.06712352375924767,0.2908275770381181,0.337212749491433,1.0650948088045888,52.34824542166663,4.923394879765199,-1.5175723498817912,4.876716767635315,28.590939258836627,3.790091991424561,2.5,1,0,0,0,0,0,-0.42880841939309133,-0.024939637884456085,-0.011787280522183427,0.15787203699394264,0.00333894186303644,0.03282728749795378,-0.10354358130926493
214,0.8584138788619415,-0.8807092973127367,10.710511694489046,0.08313600360701245,-0.19195226404947266,0.07113602744111372,-0.0214447592789464,0.3427473782059075,1.3959082886984908,52.348264377360536,4.9234109565774045,-1.4917681343863147,4.793324606694181,26.552391605726058,3.790091991424561,2.5,1,0,0,0,0,0,-0.4243936594476255,-0.03051073833647517,0.03717528389264862,0.08724948383725621,0.17735222912027973,0.017658346315944,-0.1074432374397381
215,0.03875474030856163,-1.5931998061813737,7.990906887073246,0.13337337895986345,-0.052630534761875035,-0.02359411038203664,-0.8203321297496655,-1.2202956559427849,2.7456488599213955,52.34828592052085,4.923428077336365,-1.5174051865977072,5.066025905683592,26.22307993590477,3.790091991424561,2.5,1,0,0,0,0,0,-0.4487697399126887,-0.027772396468377016,-0.07253182992057397,0.04671607188881897,0.1593694727410047,0.09167581854048854,0.06438166730857309
216,-0.21146658304688992,-2.391740009438988,9.295292995635638,0.5829696582043228,-0.023583474088682502,-0.014485258823068016,-0.9313176130507714,0.7737534262254497,0.4787994064753196,52.34830834866822,4.923445228343131,-1.5567693462208774,5.44039739744915,26.20419228100819,3.790091991424561,2.5,1,0,0,0,0,0,-0.452780741431639,-0.03951787820165641,0.09576027994191112,0.3294472253108633,0.2681512696298953,0.0012755892551559597,0.018878974602254062
217,0.7262297873471982,-1.2202890870160037,9.350387270545696,0.1937916048425693,-0.07823414790823667,-0.048937397852748137,0.905059391168752,0.5075995865529543,0.5345245664340796,52.34832856954402,4.923466203542191,-1.435998402501105,5.475837525919764,28.369482623049112,3.790091991424561,2.5,1,0,0,0,0,0,-0.4458927013740439,-0.01887513432690529,-0.047035153770018434,0.23731284563170266,0.11222227993979768,-0.022785810413045792,-0.16403178062238394
218,0.13625425644658828,-1.1463513793656372,8.790466742333066,0.10176320395491058,-0.0634978390779943,-0.04564830117617688,0.11681591134605207,0.7649039456517086,0.516997833894574,52.34834803547018,4.92348813602458,-1.2724953905027905,5.414507846451943,30.931451890858288,3.790091991424561,2.5,1,0,0,0,0,0,-0.4332955250087127,-0.017362095559184228,-0.024754930306527114,0.17966106509340174,0.15305800543918324,-0.05926091896999526,-0.13998253610133465
219,1.1727148785989194,-1.1963104721946158,9.205093774054705,-0.006551458170921523,0.12751685173033322,-0.003267015312009729,-0.12001426853401255,0.35592611318337364,0.5177476567405133,52.34836975314441,4.923509116331376,-1.1839727317741433,5.50059751672063,29.841811605279016,3.790091991424561,2.5,1,0,0,0,0,0,-0.4449417848557327,-0.00895689853731508,-0.0798474409010403,0.18668953264283195,0.016788071457843622,-0.0024471808543092555,-0.041186096015712916
220,-0.035441809426025594,-1.4956585956300137,9.96815653940664,0.08283518345862373,-0.019729606131040828,0.07844531704661152,-0.3106636060822154,0.5093644547108755,-0.31724490450238363,52.34839224098052,4.923529779148012,-1.1154585877844974,5.628777692413281,28.088985188810113,3.790091991424561,2.5,1,0,0,0,0,0,-0.4479218158058377,-0.006330152496636661,-0.016901684614918932,0.19855948836397014,0.21559707400493386,-0.060281853309903335,-0.07100564046326663
221,1.755822567296346,-0.02587406012356364,9.09268746896594,-0.14901123541856695,0.1995084741462549,-0.1715873468095375,1.7360609493092376,-0.8349330448437238,0.8880564349923287,52.3484149922339,4.923550018259609,-1.115937981925219,5.711816651066921,27.97524238373693,3.790091991424561,2.5,1,0,0,0,0,0,-0.4663632654817397,0.019407559326178915,-0.27958876369534225,0.16692144234009101,-0.2101383651960073,0.02827662407192072,-0.1456946784720185
222,1.1347034212027358,-0.3975060764105516,9.568946541288028,-0.018320934515422462,-0.03451873100898484,-0.05310239121297905,1.4021489996717782,-0.17596237323472574,0.2012732925859423,52.34843783358346,4.923570116092449,-1.1348283085886577,5.781967093769156,28.159181327644124,3.790091991424561,2.5,1,0,0,0,0,0,-0.4573732252612284,0.00890382267750258,-0.17933653004653854,0.1796055779125985,0.02815412781658081,-0.038258462280785006,-0.1998977843801454
223,0.2946546682219649,-0.7217496879320626,10.56340551595962,0.07993864122255334,-0.06041782208886426,0.0009110625416899887,0.2701972530935373,-0.3544273540964929,-0.2095717198963676,52.34845819578615,4.923592709555502,-1.1797309372947242,5.759127099909773,30.484065446665703,3.790091991424561,2.5,1,0,0,0,0,0,-0.4504293900460418,0.001217692029410182,-0.11674066746655955,0.17756536515754684,0.15879068643017058,-0.04196592269224654,-0.11313132398499515
224,1.000098094571315,-1.4590636524023193,10.601804086953523,0.08238264459101098,0.013783235357080691,0.022079483808099633,0.1632549825846512,0.030211134211243492,-0.3346954799432893,52.34847771005012,4.923616135152919,-1.2315749513920202,5.7097368975365885,33.19777677362725,3.790091991424561,2.5,1,0,0,0,0,0,-0.44326766615401264,-0.009568151269128931,-0.07729170121021307,0.24585615962318785,0.1101998450588287,-0.013062174047905469,-0.0688508234780087
225,0.7747347016721358,-1.0871448877832741,10.129046933896023,0.13140719715326815,-0.0648868200947132,-0.031464362880123685,0.6815333313818422,-0.6500429524118689,0.5556747457483646,52.34849944425726,4.923636977634433,-1.167316984689705,5.577745310887678,31.808341292559966,3.790091991424561,2.5,1,0,0,0,0,0,-0.44509201652121866,-0.004422752622549889,-0.11945462755732235,0.19446494417897212,0.10427585564754503,0.011054518157794029,-0.0948701353395329
226,0.3389624154654619,-1.0568654944683415,9.777300299690149,0.17748604215487535,-0.06491656533329372,0.052131268072336485,0.5187237182319211,0.2691201983354237,0.19604033678223184,52.34851942778578,4.923656958810653,-1.0720771928457895,5.4221697509062405,29.673713858107714,3.790091991424561,2.5,1,0,0,0,0,0,-0.438099488407382,-0.0066726589932528885,-0.03304253779631278,0.1883464587984223,0.16271963069453668,-0.040631758190121665,-0.12041942832801365
227,0.0968400290109354,-0.9674851135940752,9.835370712525119,0.2168980114086304,0.05467890372427235,0.020030621081720053,-0.6103471819907897,0.30166581105317863,0.2593681410392554,52.3485388125324,4.923677288480623,-1.0672177334848585,5.1776947038921595,31.986704768452245,3.790091991424561,2.5,1,0,0,0,0,0,-0.4265925212686322,-0.012448896865633115,0.010432711785640456,0.1677274378564272,0.1301615837701955,-0.02691150093387551,-0.023093861440475073
228,0.5095942564227371,-0.6860582159677489,9.247410010082454,0.08237396528932736,-0.07928795374613691,-0.02759726400813369,0.6130959324231846,-0.14736829217508612,0.6098767935231668,52.3485579924786,4.923697734351152,-1.0864762748500336,4.907837818448344,35.107448741832364,3.790091991424561,2.5,1,0,0,0,0,0,-0.410649154240492,-0.010727232079765591,-0.03352796720284242,0.1044565972011774,0.07817571742560574,-0.022599251798316684,-0.13982687837023686
229,-0.7375897479052765,-0.6797927590754365,9.843059482064472,0.1188993832102459,-0.1483752739167913,-0.0094076408145614,-0.3063512686507285,-0.3130517180797886,-0.0243665803689882,52.34857710237723,4.9237159940716975,-1.0270857733925056,4.766485785640253,34.32388493413085,3.790091991424561,2.5,1,0,0,0,0,0,-0.4063183619749569,-0.008023780549003712,0.029628743169763456,0.058886041965616275,0.21317920090787085,-0.062310086658129274,-0.11270550010315294
230,-0.2692092719125962,-0.4824347469893252,8.938830261270471,0.019852193964242062,0.21270532952464768,0.0009575847608194047,-0.5933062457003926,-0.2735192758847062,-0.17045042539194932,52.34859367835527,4.923733207007687,-0.9467077670233014,4.661823876662836,32.8312443937309,3.790091991424561,2.5,1,0,0,0,0,0,-0.4142323464507308,0.0013076696016217568,-0.00011119550422443122,0.0541685105570196,-0.004587649217228232,-0.03241798013487307,-0.00855313901783002
231,0.925974480010784,-0.7059127409608502,9.595908783528753,0.12780377612908095,0.2950509623801486,-0.04246736110103086,-0.14278410812007847,-0.7029217477091154,-0.34445066600698115,52.348611897622746,4.923750706591858,-0.9392396847761812,4.617651605272424,32.56015886546617,3.829427346939111,2.5,1,0,0,0,0,0,-0.4194366969697598,0.007274441171661019,-0.020445589657657103,0.1393504295445015,-0.1304853445922396,0.03471501806780935,0.023721406947410727
232,0.9927351652025024,-0.1487632824069931,8.605634556221295,-0.08099627940547219,0.3107646860443609,-0.0003263107178593238,0.9836968287825542,-0.4033310889096334,-1.0729028813846615,52.34862816897961,4.9237683017550165,-0.9512276667429276,4.590750061391665,32.51092573689599,3.880842624564021,2.5,1,0,0,0,0,0,-0.4133033326966901,0.0224796843601568,-0.059682815999362336,0.08390580433942559,-0.1933129894202441,-0.02087648085404781,-0.11092562643711132
233,1.2276954210393043,-0.6297384943889088,9.215802727475607,0.07481441226550722,0.4007837296335879,-0.04640107354589657,1.3161861783034905,-0.712259231484165,-1.0501166954454924,52.348648794020306,4.923790378578701,-0.9596286938749468,4.815276929926465,32.82933650452973,4.264753661822094,2.5,1,0,0,0,0,0,-0.407966611876401,0.05867913236309805,-0.08455222438151842,0.19841439015136045,-0.2324009774052348,0.07166443231586372,-0.08309859433612454
234,0.1473931323119262,-0.2014772910708673,8.395902367967732,-0.06811888575830866,0.1735827801883789,-0.011127899922611309,0.7679366965445461,-0.9953361470972948,-0.8327382509930885,52.34867090814468,4.92381426759409,-0.9670725854511524,5.11159015995807,33.21451994581173,4.7507728762905215,2.5,1,0,0,0,0,0,-0.38524786401426026,0.10705981557942093,-0.1351226944007,0.06303574915479983,-0.012521076741815363,0.05699828822122203,-0.1717364728183126
235,0.4726053021605083,-0.9342137346003524,9.59019320394415,-0.013250897367167093,0.055276820407202366,-0.08873930576411085,1.4149481688963992,-0.9891291901048904,-0.30809930299387545,52.348691021615686,4.923833039700602,-1.1693243659901351,5.060440071153664,32.834363670616995,5.481208275049221,2.5,1,0,0,0,0,0,-0.3517161649147961,0.1622389350897506,-0.11246474441917773,0.15236180581700545,0.023884333380733983,0.19203160633722136,-0.2496370663965769
236,0.01963550398234704,-1.0678889677178127,9.358638412201037,-0.09674453158871282,0.06308212131762475,0.004969425559568835,0.9330696756634592,-0.6872233559785597,-0.4854625654147153,52.348710450806344,4.923850423484809,-1.4235606511041603,4.9100838283929695,32.315210419440696,6.286703401851401,2.5,1,0,0,0,0,0,-0.30742102215707523,0.2252029437577606,-0.06493734987921349,0.09664691188905346,0.11273556684928482,0.26678726253532425,-0.2838985168194469
237,0.565616852918731,-0.9672217629965482,10.113085983292336,-0.09786806390028444,-0.04145408509570929,0.03640631186266005,1.5592210016342352,-1.5008416274585548,0.4967528252874444,52.348717096142,4.923907074628367,-1.4088568288065118,5.274411097395277,49.36609316993722,6.889755007442794,2.5928222451834912,1,0,0,0,0,0,-0.2421650308873539,0.2766133337188825,-0.17820057772087047,0.0972363074113682,0.1610678035979432,0.3879389070679147,-0.3185498977988572
238,0.1394754955718281,-0.809489827941677,9.665991879170754,-0.05071417311549632,0.029452585592895944,-0.03543606523296091,1.2316734481115008,-1.0312198589410686,-0.0014745720668201125,52.34871685907343,4.9239771367875536,-1.3223863120562276,5.78568813220173,69.60795661678421,7.4306368806876355,2.7147090928636293,1,0,0,0,0,0,-0.17138018612923486,0.3260597194255338,-0.22717033913982565,0.16444153177314688,0.1942389822403265,0.3951402587238257,-0.3594946588801122
239,0.4108881082573329,-0.6890716653844627,9.536314046366439,0.08872591568493181,0.12888392010773675,0.01963697453938946,0.9140716508985942,-0.6338658471879371,-0.7579450818951944,52.34874187761256,4.923984605962529,-1.2684541105628335,5.16359490696808,49.96019762422425,6.913954483389536,2.85310591882585,1,0,0,0,0,0,-0.22392046898236392,0.3022601772517133,-0.09775541606052117,0.1560647609753698,0.11782488846323502,0.34359584466818666,-0.30381531908287546
240,0.525475266499068,-0.9555028851855498,10.445608431166995,-0.01646518051881339,0.021413344063271517,-0.05827693106300976,1.6609674398748973,-1.1403495809082005,0.10397450126261587,52.34877302432531,4.9239715221900795,-1.2232047617369677,4.217906765088846,23.067896661473288,6.072497944849758,2.9966722325312887,1,0,0,0,0,0,-0.3047071141509455,0.25589779599712964,-0.008752889700093235,0.09309994518362384,0.011850897271887055,0.33288388170812105,-0.2933875197901777
241,0.7095719587746679,-0.8161934236537758,10.591801775576263,0.04485219862859882,-0.0274102460174057,0.03342659666139152,1.5208142917763905,-1.1582085490950431,0.09276321950553816,52.34879120727371,4.923971291530722,-2.0133557102881987,3.88359462152752,31.68721350925973,5.469940679329469,2.995953253067947,1,0,0,0,0,0,-0.30278296043882563,0.16005583688409078,0.042551106801878784,0.047430636701725065,0.0285765675174118,0.2875423080180101,-0.2556466995070851
242,0.0028886423515052106,-0.6760329706209718,9.992017191800867,-0.06347431339386543,-0.06611925011792966,-0.062042344724831826,1.275702354862517,-1.222471205205354,0.5274675184152826,52.34880495624608,4.92397502872703,-3.026433398809206,3.7238397855331873,46.755965263227,4.940748586340158,2.9500552509193767,1,0,0,0,0,0,-0.2905978986374948,0.06078715959089355,0.032322051564504364,-0.011568167173869662,0.023111295110902,0.2312539395053118,-0.2556709857805686
243,0.07470653744331089,-1.790308091398413,10.760245528826504,0.2246622950790448,-0.12645220044275374,0.054491273991719005,1.5353795983867011,-0.6664967281512189,-0.2367625264103201,52.34882973848424,4.923977546213785,-3.009009378990857,4.228380209441819,39.83572733444811,4.504832381341084,2.878582701992464,1,0,0,0,0,0,-0.3455808508349013,0.012939566143224616,0.09366037677112582,0.1624333333317283,0.14912223972637012,0.17142272667422495,-0.21363180076597688
244,0.06357406654660723,-0.7394390222611655,9.941077865665974,-0.0631184048288905,-0.2372763823657865,0.09389149411389196,1.1111672988254595,-0.8506636877623187,-0.4723987879927026,52.34886080437534,4.923979974846992,-2.71659587565117,4.922587379285695,28.92196469371294,4.097560891450979,2.7991023417709155,1,0,0,0,0,0,-0.4102276671682337,0.002856176515782991,-0.04655662189372065,0.031008394190321482,0.21886030145196486,0.03596999297645129,-0.25764975452533634
245,-0.4553416976639802,-0.6071532494833909,10.080973829308789,-0.13511788168220829,-0.234023602032425,0.2061229490245584,0.7130387288614042,-1.239488148945555,-0.032086027618504875,52.348881469642755,4.923993498330673,-2.7217939848332486,4.910021618826918,28.86307016154915,3.9657222064372433,2.8153267715399317,1,0,0,0,0,0,-0.4149511718802961,-0.008514276121463256,-0.0578547519808087,-0.05260470131662461,0.2769589768325767,0.033846120230791706,-0.19299509982672144
246,-0.969183263894734,1.1433775970123001,8.073335266235826,-0.3480965559213136,-0.29300231331465604,0.07872220850588582,-0.09066016851982894,-2.5040046030657703,0.1143671488786629,52.348898577601155,4.924011039085396,-2.8064097824626346,4.695660909914674,30.77557971215776,3.9184681853341448,2.8615187219888765,1,0,0,0,0,0,-0.4069251105015213,0.003915156660519179,-0.1776309461499454,-0.30426626487970443,0.244962625352984,-0.017669013552768873,-0.2331077976382609
247,-0.3959563474071206,1.0035595689471026,8.74013498110499,-0.3450221586319401,-0.06496080969294478,-0.04805994529549551,0.07855617659169792,-2.6266304867900283,0.5498605943057149,52.34891697882105,4.924028012291895,-2.7926743080884036,4.5665813898198255,30.05901787228579,3.8667361805691867,2.8543128611363584,1,0,0,0,0,0,-0.4167563592181285,0.0013261058667479054,-0.19809358202647687,-0.22388224984566354,0.03661668720134752,0.0502941656683961,-0.15685512780361938
248,-0.3509798389590978,0.8561105976810042,8.963760379791456,-0.3793269295800961,-0.15833396730305907,0.06353232193272802,0.08443148751123508,-2.9580270538437867,1.2870496809870633,52.34893331241079,4.924044796257059,-2.7526939617795354,4.461851309412531,28.864979468222515,3.8136291671096174,2.8303869252495235,1,0,0,0,0,0,-0.4179269950080123,-0.008712108245277067,-0.1923397671389336,-0.2856455198942813,0.10562815440374514,0.07346239233062657,-0.1270876324262908
249,-0.31239757940427443,0.42065377075238336,9.41080881490517,-0.28172828211142403,-0.1675778752179971,0.04287891464270384,0.04361853872383962,-2.908018595087912,1.3140470429430946,52.34895144877459,4.924061199280032,-2.7394041280044714,4.467673272844751,28.975478280809874,3.797320179828822,2.735980227621188,1,0,0,0,0,0,-0.4235301052094244,-0.02170070482833863,-0.16383269848084536,-0.22627925117468545,0.11844063508196813,0.08630940565908166,-0.1006631162154273
250,-0.5338647648064084,0.1030163596231099,9.038758459730552,-0.1754188608608383,-0.058568618424199324,0.0643226750569281,-0.376970294394462,-2.7617446024658245,0.9897752438860256,52.34897020173837,4.924077793125161,-2.7332368349543232,4.505059896098637,29.32290028484559,3.7923117440536185,2.6195042290098143,1,0,0,0,0,0,-0.4307953836301548,-0.03408287235987244,-0.1335294975394836,-0.18488295476022407,0.1136777653695772,0.08063368607497752,-0.03534631564260704
251,0.24726131393590398,-0.042151200784945865,8.874044000678907,-0.11870170512223364,0.13413536399776982,-0.09854958412465076,-0.7174524756760465,-2.6790014421548203,0.32547468825838555,52.34898916559687,4.924093814912945,-2.7346299303420163,4.508589687428635,29.181400928622555,3.790773670077445,2.5602263004584382,1,0,0,0,0,0,-0.4417567011081761,-0.034737365533098565,-0.14195218362779236,-0.08722229120480808,-0.058557846676566036,0.09727807942155624,0.010976282926710221
252,1.1321822256645628,-1.1145566350159963,9.314358352714603,0.16110287129733664,0.2436419535718236,0.048827334816126534,-0.7395177061182548,-2.0825790321358277,-0.7961420543266774,52.34900820158736,4.9241099637981085,-2.738040516137456,4.50245248867229,28.951106245166798,3.790301332672642,2.5188582310428296,1,0,0,0,0,0,-0.4452033969869744,-0.04890928629830002,-0.03385418176471803,0.06841387352444739,-0.057249726534323114,0.11708386994944475,0.08709781457425808
253,1.7259206957651971,-0.7969018318497432,9.744083117673762,-0.03296710878036693,0.1512812981491769,-0.06658495237939947,-0.28308963343774074,-2.1864171809153192,-0.08016588884083152,52.349024752286724,4.924122976640044,-2.6027376171052534,4.4435415158446725,27.968138602135163,3.7901562794258976,2.5059049431121903,1,0,0,0,0,0,-0.4448839825517759,-0.04155969316168887,-0.08806420245647263,0.03582191339195915,-0.1259855394488441,0.1312313239695958,0.01871059582810191
254,0.8270253295897422,-1.4243888047171844,10.281285883767751,0.04159150548742492,-0.11529986359452925,0.15780578596979986,-0.5109239328547729,-2.6154831280213173,0.7128281430214347,52.34904296290817,4.9241349438104995,-2.4304190108291808,4.36956281393156,26.84847445292224,3.790111734056048,2.5018489726358215,1,0,0,0,0,0,-0.4380638037040032,-0.047995727059175375,-0.02491498498834997,-0.04273291696926117,0.14912123002510766,0.1414083730103792,0.0543108962931584
255,1.5695338324594972,-2.003593347156781,11.472796896864825,0.006203068412428917,0.17566077064733182,-0.07209779681741221,0.3465891044091893,-2.3419507162077258,2.923541412118503,52.34906174127017,4.92414910505356,-2.3374691621498997,4.580648084713051,27.66810850726244,3.790098054321057,2.500578955587389,1,0,0,0,0,0,-0.4519770304104171,-0.04970529959300327,-0.10416611270702088,0.13625326175992314,-0.1378883518752337,0.27907873182490905,0.14319887557973465
256,1.0831279077373654,-2.5277500824709658,12.08003317298799,0.3823583559135378,0.09332183680362953,-0.0666269350007763,-0.26490582943982344,-2.0790893541598905,1.2224692354425322,52.349080713815596,4.924163680038438,-2.2656988743414543,4.873123530599267,28.8399477066084,3.7900938533199184,2.5001812842254534,1,0,0,0,0,0,-0.456453673668781,-0.05109870335550032,-0.02096146075869295,0.27191181288317545,0.024800777900419544,0.22159418251602744,0.15302525680647822
257,0.25531796297802545,-1.790276852107164,10.742538976250426,0.18155682892322908,0.242702534025336,-0.15363193288757154,-0.6835070347198987,-2.388217892213526,1.085235858377568,52.34909975277726,4.924178075137756,-2.067394740353201,4.738712138008014,28.029789410593626,3.7900925632064353,2.500056764233931,1,0,0,0,0,0,-0.4570914907649538,-0.03177797297495969,-0.07261446021788978,0.1627487724734056,-0.06870685221120773,0.18308265814670166,0.16128173668201154
258,0.8808395362933423,-1.823919740228135,11.0969472019946,0.29487505265823305,0.0452235875512339,-0.09614755933023107,0.5766007321434518,-2.372269980903358,1.4800470868417142,52.349118814455174,4.924192728098862,-1.8353251243057769,4.482417947653305,26.85967114866148,3.790092167016873,2.5000177741788936,1,0,0,0,0,0,-0.4470491995769281,-0.029600977697427464,-0.03914493889246863,0.1732940167300253,-0.03341429238559473,0.1942335198964553,0.0669670787727278
