,Acceleration x (m/s^2),Acceleration y (m/s^2),Acceleration z (m/s^2),Gyroscope x (rad/s),Gyroscope y (rad/s),Gyroscope z (rad/s),Linear Acceleration x (m/s^2),Linear Acceleration y (m/s^2),Linear Acceleration z (m/s^2),Latitude (°),Longitude (°),Height (m),Velocity (m/s),Direction (°),Horizontal Accuracy (m),Vertical Accuracy (m),labelnormal,labelturnright,labelbrake,labelaccelerate,labelstop,labelturnleft,pca_1,pca_2,pca_3,pca_4,pca_5,pca_6,pca_7
0,-0.6993310865414486,0.0879673116665175,7.542586400811814,-0.0009144841827125,-0.0260997799460704,0.0058333625624154,-0.2120667687436591,0.1453155856241655,0.0160710108124718,,,3.7061390850099984,0.0011034973949308,171.8082695116766,,0.4564452211550363,1,0,0,0,0,0,0.2953113581701647,0.3168677397642003,0.5151047941242712,-0.3366552794511144,-0.0616759269965979,0.1342053668787144,-0.260626155007813
1,-0.8964252238270703,0.0743302190684182,8.023656342525276,-0.0010441209720288,-0.0901617765380342,0.0074947510435974,-0.5034804981664699,0.2241311135805813,-0.0143671168884403,,,3.742949554734982,0.0003520240656592,247.2088160019666,,1.1876447546017674,1,0,0,0,0,0,0.5058104781955046,0.2491043287299021,0.4844803082536825,-0.3169302326336293,-0.0033652432235711,0.1754832635074402,-0.2694546807364476
2,-1.0532458920158398,0.4462345327322508,8.442601618100323,-0.0031729599986618,-0.0463541103803949,-0.0296218079580594,-0.6563419288967453,0.5297445302021979,-0.0221108184763836,,4.9152333352947375,3.754325326279294,0.0001014787102452,263.8755236199469,,2.5276082296603697,1,0,0,0,0,0,0.5958528517837678,0.3200807606568723,0.4795249363965438,-0.3016017279561557,-0.0157253074040013,0.236967788981848,-0.299798157158931
3,-0.8925434718592252,0.438570174225219,9.07530349058814,0.0252701374126527,-0.0838575428937336,0.0001531971244321,-0.0726775983977383,0.4680865340763442,0.0459000570068271,52.2978571906705,4.919754653106751,3.776295801520285,2.8996563864588503e-05,266.9234577804445,,4.0338134596051445,1,0,0,0,0,0,0.6129200345094497,0.3390941903715532,0.4819650901038,-0.273462404386381,-0.0333074057975452,0.2128847316878131,-0.290544053171204
4,-0.1886006763630093,0.6912591591396128,9.182671352300028,-0.0644698123973128,0.0284068593078978,-0.2639801983847128,0.1684443777511078,0.2644344608389079,0.0031251906929525,52.32955147754283,4.92126452209032,3.80106871798632,8.27949928860471e-06,267.4771341903525,5.73048586516854,5.587081312141817,1,0,0,0,0,0,0.6040214052860011,0.3509444800838761,0.4215111957384608,-0.2085110946314584,-0.2691039482744696,0.1657181292899471,-0.261057465183166
5,-0.4225189790598903,0.2184356603857404,9.41928375538352,0.0246228625000069,-0.1348106606256611,0.2661873210265729,-0.3451751933001196,-0.0078798579033875,-0.0983285308135592,52.340392035708426,4.9217642505619095,4.118582875976348,0.2464990091359155,267.5776907480016,5.0018635770912185,5.525358585379487,1,0,0,0,0,0,0.5709857472766818,0.2757211904441623,0.4749378030169083,-0.3149574432550265,0.027400323576372,0.0650453418344826,-0.113439110200818
6,0.3070375558020817,0.1192954424401849,9.849287725631113,0.0470137066277967,0.0688991157250909,-0.0472002434270587,0.0517794769170043,0.138329167094419,-0.2448435504500321,52.344099923705514,4.921926749931526,4.514215515797988,0.5633735489142704,267.5959533059297,4.447248839762448,4.957875073537107,1,0,0,0,0,0,0.5042277774887995,0.2010710872376667,0.3979750984016329,-0.1397591612569441,-0.2416568444936646,-0.0009323943149236,-0.0660666236800764
7,0.3454250648798757,0.1288669043517211,10.322729938171744,0.0096413731669811,0.1004613057009939,-0.3214872013746317,0.4564609092523635,0.3895125214105176,-0.1550938866060994,52.34536562122591,4.921972669395376,4.8674191925622505,0.9360675989703164,269.7679859914103,4.17110086273093,4.550899377131816,1,0,0,0,0,0,0.4677205882466988,0.1602698256912406,0.3276968287232384,-0.0223047538369345,-0.3635581990836052,-0.0651078184863623,-0.0972209469572385
8,-0.4163561445656855,-0.6350238137691193,10.11560964518625,0.1141252473916212,-0.0561898701833533,-0.0946069212655922,0.3740254902732716,0.502511779693769,-0.7439833632486152,52.345798525941184,4.921979398888022,5.20930066981791,1.324698896225862,272.3311750854563,3.98046944666538,4.194182558706183,1,0,0,0,0,0,0.4478874505037799,0.1175400094994952,0.3659727993958384,-0.0113467111795673,-0.1255601776969289,-0.1582565223494734,-0.0706293606832817
9,0.095005479034729,-0.3465623048902226,9.847201120915996,0.1115361011218956,-0.0322816349561494,0.0790962132602973,0.7096485789130533,0.4629224830612591,-0.7766371186775071,52.34594659167016,4.9219705182695135,5.195031216362839,1.675011489112705,273.4923204776608,3.8852416409087103,3.9161847323443273,1,0,0,0,0,0,0.4271711969391348,0.0871686567845354,0.3089863764173877,-0.0323385181845918,-0.108250155727187,-0.187030253700628,-0.0543026543531009
10,-0.4080693067860816,0.3295986582725817,9.124550916159698,-0.1075631607630404,-0.1234305696482995,0.0407672604979979,0.2485708996484239,-0.3405313460405461,0.0095555830246701,52.345997234359906,4.921956114826866,5.0857228514375885,2.0143834986045457,274.39883406315585,3.8193121324609054,3.6628357864192433,1,0,0,0,0,0,0.4057596584223775,0.0660734462419093,0.1814293180015714,-0.1688657004591437,-0.0552806849240028,-0.2188671596953794,-0.0544349155635909
11,-0.0981312642089824,-0.2754154911381509,10.364370655012197,0.0833083046828903,-0.0496367357767916,-0.1058210129658008,0.2722712589787626,-0.5644523147764398,0.1245690099809113,52.34601455559982,4.921937644977215,4.903104899826451,2.2041623584274244,274.768066609318,3.799065399595413,3.4775216429301725,1,0,0,0,0,0,0.3835227183447606,0.042000907863535,0.1733612116841014,-0.0138674754512369,-0.1244878891147019,-0.1640439738456588,0.0096486919865012
12,0.1045606207085388,0.4356717749531685,9.786616590324275,-0.1892415142667034,-0.1033310853081874,0.1269692475166197,0.6201533038857006,-0.4466753610187117,-0.5277466372432575,52.34602047995638,4.921917819238786,4.70092427770579,2.351230229653666,275.0397209975568,3.79284769524201,3.313510750911848,1,0,0,0,0,0,0.3799741935620524,0.0293399662825136,0.1244735952891027,-0.1543240212654471,-0.0657336200803788,-0.2336306341634158,-0.065827729227072
13,0.0415986085178217,-0.0956832385573451,10.092238118356327,-0.0291144823938623,-0.0098385681432158,-0.0663477139169363,0.3725767387611551,-0.5290368973078567,0.0379875522967164,52.346025016217105,4.921897223555244,4.839491888631902,2.4468065857445165,274.84352687732917,3.7909382589056464,3.167403149051404,1,0,0,0,0,0,0.3641252553769286,0.0191402742257247,0.1215922758934599,-0.0338115759787177,-0.1436827635848372,-0.1916313230304211,0.0060147901612209
14,-0.2961772544437011,0.2143767358537187,9.992907019406458,-0.0381775467713202,0.0085768892015222,0.0106439124108091,0.1763324752530112,-0.886594638047392,0.2129937052689542,52.346026567747266,4.921876371143849,5.068988549082492,2.5276814878633096,274.5623895455693,3.790351877354612,3.026901640252855,1,0,0,0,0,0,0.3566243185548344,0.0182487823142385,0.0929580140949418,-0.0895895000585598,-0.1112598101903503,-0.2035640928413984,0.0455627626529187
15,0.1429711571111767,0.0936837327511555,10.104029529936351,0.1355864300994283,0.0374677267059953,-0.021647557131832,-0.0520599171967095,-0.6334615502574069,0.2116350863762714,52.34602709841471,4.9218563866566445,5.0467217492092304,2.443599947038916,273.89754191860453,3.790171801529696,2.923213036595366,1,0,0,0,0,0,0.35251833376942,0.0035058650680374,0.1336820646644386,-0.0297040924071351,-0.1377923566207338,-0.1910279639354552,0.0758506569091781
16,0.182056333873621,-0.6132744226026553,10.561428956394987,0.0911209203634394,-0.0084231433686967,0.0802765056741316,-0.1399474615321069,-1.0161426278929957,0.9443823284871182,52.34602727991805,4.921836691567099,4.95727184486973,2.3124206189757275,273.16300684495644,3.7901165008425215,2.8310512310693783,1,0,0,0,0,0,0.3494841446640615,-0.0136648214731124,0.1561099322844075,-0.0536713802679603,-0.0839746145953663,-0.1363780320383072,0.1438301687057323
17,0.3199955719542308,0.3838696931097159,9.699406503973467,0.0563054132869674,0.0171244956194993,0.0127784916336551,-0.0845658022610453,-0.6903897450154342,0.3815656948461319,52.34602734199736,4.921815503762244,5.010784215406857,2.6214918114903467,271.96571360233446,3.790099518185336,2.702926566690665,1,0,0,0,0,0,0.3349791898806941,-0.0110151361235675,0.0880462496610525,-0.0735178350337296,-0.1277378266265776,-0.2116650142476208,0.0661844279914707
18,0.0746088460793495,1.230727059730579,9.460226958940009,-0.1818734143226976,-0.0171789606974994,0.0071136657064062,0.1190468928799025,-1.2272958103937284,0.620713336896388,52.346024853267906,4.9217938182315235,5.102446083235659,3.0562615101356583,270.68435167860736,3.790094302867772,2.5635409455711393,1,0,0,0,0,0,0.3141141653341094,-0.0033884479250965,-0.049538735343331,-0.1698013682834754,-0.1233677112598908,-0.2484716776475929,0.0203161172376117
19,0.7112899789083533,1.807026424323112,8.789674244818759,-0.2463372960633469,-0.1338108543588806,0.0084407647153054,0.9050281374741443,-1.700873504931494,1.3142792155131553,52.34602400205168,4.921771013214159,5.311727201888966,3.076794743717856,270.5334809827478,3.790092701261087,2.5198961221781717,1,0,0,0,0,0,0.3135674907742652,0.0041153533759306,-0.1279834351631257,-0.2399148177206453,-0.146973729829379,-0.2464372519120909,-0.049247541717933
20,0.3536502006397124,1.8631832587551669,8.96632358625602,-0.2529838624254135,-0.0783545322286716,0.1264039086974735,0.2366893484741563,-1.7458251912825302,1.1520428818967614,52.34602371091152,4.921747517076799,5.552395378934271,2.9790570568903085,270.5879241607986,3.790092209412998,2.506229930545896,1,0,0,0,0,0,0.3187672547931855,0.0088331593839905,-0.0950004419313649,-0.2901459218001596,-0.1021951292712947,-0.2555821274566126,0.0237011458790718
21,0.1563811903181634,0.8922357081097905,9.701620243085651,-0.0283052302884205,-0.088040134719428,0.0149481908952585,0.7396118989179872,-0.9121350789225964,0.2356502117766688,52.346023611333315,4.921725061863618,5.682924682488473,2.9547237690226487,270.5978118445931,3.790092058368085,2.501950733628348,1,0,0,0,0,0,0.3196342119499578,0.0067530533526881,0.0075789613843341,-0.0981007211535699,-0.0980970396346553,-0.2752537393322963,-0.0205745314695098
22,0.5719642811759175,0.6191965588347841,9.42064814625042,-0.0674318148270382,-0.0122710466751823,-0.0233749181397779,0.583588478137684,-1.031819233682431,0.3681999244982395,52.34602357727472,4.92170295373262,5.784063766273463,2.9513487432178707,270.59960759374513,3.7900920119826944,2.500610819279723,1,0,0,0,0,0,0.3164761744227002,0.0100975573294938,-0.007471512986691,-0.0795763557426151,-0.1666945428082875,-0.2498884134721062,0.0217557810008952
23,0.069791263381333,0.1513414604556995,9.533904697068118,0.0640989710059028,0.0539641625014938,0.0185066606858036,-0.0046053051338532,-0.2366049858909081,-0.6058486744616278,52.34602356562573,4.92168000780487,5.930653439814197,3.0361231825568784,270.72268652177587,3.7900919977378953,2.500191261475713,1,0,0,0,0,0,0.3179144830892989,0.009595193699605,0.0791709547825156,-0.0009975630305408,-0.1045931159373967,-0.2959869015073562,0.0540796824265097
24,-0.2998225721607014,0.5101560915967924,9.319138976099053,-0.0035361720531523,-0.0655024291011836,0.0892823921391051,0.2023718094503657,-0.3819089761370392,-0.4507255715918352,52.34602356164144,4.921656782525049,6.089371957351818,3.1460658285101406,270.8677922631794,3.7900919933633648,2.5000598883390004,1,0,0,0,0,0,0.3204590647330595,0.01715894902483,0.050546451634069,-0.0732371007663927,-0.0154308314642147,-0.3302180977758372,0.0060241636442495
25,0.2672344958211294,-0.2655196495231999,10.052675482573996,0.1076654285531221,0.0263795600705363,0.0033714350819897,-0.07837017816011,0.0414472531470752,-0.5259137077644012,52.3460235602787,4.921632828414603,6.11229492504708,3.1774561551130724,270.36220018315794,3.7900919920199607,2.5000187524075868,1,0,0,0,0,0,0.3148343132839011,0.0115415792528653,0.0959795138788678,0.0614548353996895,-0.080895831059934,-0.2906496211229458,0.0659113580817913
26,0.3792625654254909,0.3325003600093492,9.403690405075263,-0.0714574762439009,0.0461636438343468,0.0242914380888776,0.1549901863012759,-0.916078065082335,0.1914794992666968,52.3460235598126,4.921608949127593,6.098980836739957,3.186418579072358,269.7384317854717,3.7900919916074063,2.5000058718073697,1,0,0,0,0,0,0.3088913030179696,0.0209642393705998,-0.0092987296230468,-0.058094885034588,-0.1357442009029963,-0.2623245444336854,0.0764626082253112
27,-0.472044593162004,0.7014587747656554,8.867825037155113,-0.0127629183750086,-0.020026605046784,-0.0894722890934833,-0.1050289654398685,-0.598259390636197,-0.3873585874223125,52.346023559653176,4.921584459105025,6.025923615782746,3.242563863358141,269.3387064132336,3.790091991480712,2.5000018385970777,1,0,0,0,0,0,0.3085631813839311,0.0223862608945661,0.0068783699837602,-0.0578823258294369,-0.0792618724664046,-0.3308616523159726,0.0059464076839851
28,0.0906213430791283,-0.493684601326729,9.65756697705663,0.319461740254563,-0.0433217093456494,-0.0479047038149901,-0.3203516249794647,0.7148495236746397,-2.0582896904250543,52.346023559598656,4.921559447598676,5.936923933926687,3.3121804139986253,268.97967055750246,3.790091991441805,2.500000575706763,1,0,0,0,0,0,0.3092732563600564,0.0059842316599899,0.1664714364785632,0.1543781695688582,0.0008677079749745,-0.3634173172745591,0.0005068849478328
29,-0.5582697379474821,0.2120205461481293,8.961542092651355,0.0059434143777077,-0.2144914562594925,0.1625679809654839,-0.417485169057501,-0.5775322031953602,-0.8375874511707729,52.34602355958,4.9215345800527786,5.8380985393173495,3.292760490093918,268.9553986007324,3.790091991429856,2.5000001802669445,1,0,0,0,0,0,0.312749417029841,0.0086717941773515,0.0660489929338364,-0.113652819897742,0.1414266666056522,-0.354364909935135,0.0062549370640722
30,-0.0620647769864787,-0.1086567106173563,9.409989552276972,0.2602809884138992,0.2329727639915614,-0.1012771799977805,-1.115452172259013,-0.3343521630746988,-1.2759189761716587,52.34602355957363,4.9215094426663475,5.736651501874144,3.2479191046658293,268.9918997283308,3.7900919914261872,2.5000000564457,1,0,0,0,0,0,0.2980948160307004,0.0068663997027089,0.085746227512388,0.0955691236282055,-0.1519255485955685,-0.2826997971681698,0.1613442539728895
31,0.7870074225953194,-1.158694912404036,7.919971629587088,,0.185187698705267,0.0032417257729238,-0.0459695208443937,0.5293085856846182,,52.34602104960912,4.921485168831858,5.5210468804459225,3.202964337069569,269.53047429320867,3.79009199142506,2.500000017674439,1,0,0,0,0,0,0.3001466171785672,-0.0045228349131146,0.2340478858863428,0.3019173798917413,-0.0947140134333418,-0.3666445994017501,0.0462889704395346
32,0.6206509355172172,-2.2304451855772607,9.5523484477637,0.3907043811875411,0.1672172798534624,0.0045444343832716,-0.7520057439767205,-0.0456257319949258,-2.6249999311336856,52.34602019112989,4.921461182937161,5.274979296359762,3.1579773674562763,270.1602327964085,3.7900919914247138,2.500000005534271,1,0,0,0,0,0,0.2988278834981589,-0.0204271884367208,0.2102271708876282,0.2523593637632607,-0.074249766904815,-0.2521795683173416,0.1744126919810659
33,0.3207067362219658,-2.110106334430028,9.687047421445705,0.3244305857325006,-0.0226255533396318,0.0391048763033715,0.0969135497266154,1.2453225853611305,-3.3334163552346867,52.34601989750557,4.92143729305212,5.293857540858248,3.152277729984082,270.43829326661063,3.790091991424608,2.5000000017329067,1,0,0,0,0,0,0.3130461777987354,-0.023070516632337,0.2761674238444668,0.2673585019064095,0.0256087687735432,-0.3493534388862952,-0.0078522960979662
34,0.4424825830914857,-0.4380134020505997,9.0818339464074,-0.0153706456557605,-0.1223598714017774,0.0500166319444587,0.1353768988158929,-0.063415773547675,-1.704463086461778,52.346022307040045,4.921413753022422,5.383436955699613,3.1577952337456106,270.652480188906,3.790091991424576,2.5000000005426126,1,0,0,0,0,0,0.3146641617239147,-0.0071869733014749,0.0995732911656658,0.0091979766144327,-0.0040162498579866,-0.3333742256779241,-0.0368938579823457
35,1.1351244770063984,-3.3672665318683315,13.165188381340087,0.3458369557870799,0.0940746643830158,-0.1144300085526958,0.4995719689561372,1.2915829484386117,-2.327026534425741,52.346023131169346,4.92138969396286,5.342312367365778,3.177232577401816,270.8550417580722,3.790091991424565,2.5000000001699045,1,0,0,0,0,0,0.3050318562874271,-0.0292228898662267,0.2934917174314055,0.4813465261489346,-0.1210952655970776,-0.2098657471672573,0.092601402539111
36,0.2351085419355346,-2.1696932603996992,11.433073075742822,0.1978276895028744,-0.0169126733508302,0.0665725940363934,0.1655505047925298,0.6818192016249277,-1.7939502669006175,52.34602341304499,4.921365143997549,5.2663094027648745,3.200644421081176,271.0555169668526,3.790091991424562,2.5000000000532014,1,0,0,0,0,0,0.3110498572142899,-0.0262370921559361,0.2252540834455395,0.2394270376925643,0.0159328224802499,-0.2642979658465481,0.0657264376826728
37,0.7376680376603426,-1.8335817392447,11.06825638671116,0.1858688265409478,0.1505931269642542,-0.0153912656753573,0.3886356339642283,0.6706429835961022,-1.113934362432209,52.34602350945449,4.921341383872953,5.252573785576232,3.182321844955023,270.64179934400624,3.790091991424561,2.5000000000166582,1,0,0,0,0,0,0.3057871241554594,-0.0242628836042928,0.1760560889493202,0.257686525507458,-0.1448534060935022,-0.2234150589845806,0.0963573034059138
38,1.2024243652340083,-1.0614016092496563,10.506486051303892,-0.1256198498979408,0.2292257791356871,-0.21169337673335,0.7157161878016005,-0.0280912121136135,-0.4572857439460665,52.346023542429286,4.921317887110132,5.2554545658402825,3.1520836165486488,270.11656022297456,3.790091991424561,2.5000000000052163,0,1,0,0,0,0,0.2986068152593049,-0.0086216227177413,0.040785214968944,0.1768277300436422,-0.340107458436494,-0.1987049358785582,0.059491301623678
39,1.4769703025596397,-1.1379186609041825,11.234551734704343,0.1469178544702994,0.3142846554447421,,1.5782521982143052,-0.0251635077245856,0.2247823530650105,52.34602355370759,4.921294478161759,5.468677680618253,3.1077257718427305,272.23081923867136,3.790091991424561,2.500000000001634,0,1,0,0,0,0,0.2977947937111349,-0.0035332842838757,0.0257278366631666,0.35818786020717,-0.5191435298657853,-0.1431048153396135,0.0438425043398062
40,0.5030800341894063,-0.2754516501998626,9.776166236265643,0.103640586672225,0.1661986540519134,,2.281473993644876,-0.7617737764659734,1.776498786898009,52.3460235575651,4.921271416336145,5.738030668314017,3.059336728551626,274.8244250552105,3.790091991424561,2.500000000000512,0,1,0,0,0,0,0.308690929360094,0.0077834554463607,-0.0641217962654183,0.2257870372728053,-0.4810635125273226,-0.1573393295666353,-0.0320173139568452
41,-0.1825384335342692,-0.7616955405791155,9.647697821582316,0.1660469988323301,0.0335712846397296,,2.474609029857765,-0.7193818121223516,1.2583313778145122,52.3460260688468,4.92124974162281,5.874495567101018,2.9526380080686923,278.5690031369033,3.790091991424561,2.5000000000001603,0,1,0,0,0,0,0.32534563944212,0.0060617385032143,-0.0044704517801845,0.231434160612268,-0.3599300551713499,-0.194413360004707,-0.0714594646611426
42,-0.1769852801647702,-0.6169998883708547,9.434195137232974,0.0818502420094687,-0.0045258701549759,,2.0916232381472644,-1.1969288902077917,1.7330637261211603,52.346029437738885,4.921228529423427,5.975498916532272,2.8292908021538765,282.52261475083145,3.790091991424561,2.5000000000000497,0,1,0,0,0,0,0.3387592064823061,0.0067647000528048,-0.0300659768326506,0.1644538819575946,-0.3619849608741653,-0.1805833548520957,-0.0471218057945456
43,-0.9109938968952254,-0.0831475370735974,9.324980651786484,-0.172587552991231,-0.1393034200450973,-0.1459561678114889,1.0877165422518271,-0.6359685625151651,0.2083602156959183,52.346035609920435,4.9212116033918925,5.8177336602656355,2.711907538891933,292.9385191978136,3.790091991424561,2.57273884975877,0,1,0,0,0,0,0.3891732099003914,-0.0034502508152488,0.0504201030764836,-0.0554248705686233,-0.0924893748050806,-0.2992351149539209,-0.0720426649166639
44,-0.8484100656343327,1.314642467582012,9.282575465120235,-0.0494853284560649,-0.2260823614461385,-0.071387841362289,0.6062343124411147,-3.419433174061549,1.574941527491931,52.34604274090669,4.921195788683226,5.590915626198778,2.5962270735396777,304.52807129741853,3.790091991424561,2.668254059463501,0,1,0,0,0,0,0.4155915925972724,-0.0028948791304349,-0.1058341787157489,-0.2687444140966101,-0.0553189489040483,-0.2017470971675072,0.0441980003469341
45,-1.1712487129042062,0.5309686892520373,8.773316722079326,0.3019411755697314,-0.2630593279210277,-0.1419379525207494,0.8095001002726342,-0.7466393894754009,-0.8193383791805657,52.346052709793746,4.921182887267956,5.3845431587377846,2.9883168245011515,316.8627205358949,3.790091991424561,2.7282129623804128,0,1,0,0,0,0,0.4502740255340557,-0.0266231018797636,0.0568444885377068,0.0013486363709914,0.0533222219982761,-0.3521471154813175,-0.110287762969685
46,-0.9890646104201952,0.6923023135186696,9.553639901910822,0.0069718720750092,-0.2280488941702566,0.1146387492489622,-0.1813724651586392,-0.4431515133482112,0.2595115772006813,52.34606615928592,4.921170957251226,5.183626243169084,3.525382829136792,329.33269039982173,3.790091991424561,2.7770382092990875,1,0,0,0,0,0,0.4767849350035742,-0.0451584475361764,-0.0146501847044914,-0.0985410190828326,0.1557489126071461,-0.3350136416677072,-0.0093384923170418
47,-0.2882392698411907,-0.1027119027017735,9.902360249616509,-0.0634711636415388,-0.1668681368437678,0.1344698659357648,0.8405099938760936,-0.3117844279983554,0.9318496338782326,52.34608330920632,4.921161576029787,5.3828760898666905,3.882351635095602,337.16243052991064,3.790091991424561,2.787539680217411,1,0,0,0,0,0,0.4857303569436479,-0.0460809308334634,-0.0724853111200174,0.005172092624992,0.0847132082301756,-0.2861550605580581,0.0016555738793931
48,-0.0889746666614248,-0.2667486316073548,9.22039217568,0.0324900920606294,0.0243901926829766,-0.0041261621879999,0.5347046597677101,0.0082137676815696,0.0128330957005348,52.34610172477842,4.921153044669897,5.688910476936723,4.187899733775143,344.14946150416387,3.790091991424561,2.7860411010455417,1,0,0,0,0,0,0.4909758653690192,-0.0363486467791197,-0.0966633850012297,0.1236347375106952,-0.0257370299843362,-0.3159186887891775,0.0348410501237545
49,-0.4597119778308264,0.1695035130470278,8.362532316467409,-0.0157319991723152,-0.009794156927359,0.0953117507695101,-0.5888217537826719,0.1370811207526908,-0.3559249340682786,52.346120573239354,4.921145432369348,5.732669751740836,4.278710948206448,344.6409333553653,3.790091991424561,2.8343079456396474,1,0,0,0,0,0,0.4974057192767146,-0.0319055459741259,-0.0888910471009088,0.021981950994032,0.0836184614739439,-0.3712786689915196,0.0588278858973368
50,0.1528503027251284,-0.2328927312808295,9.237918139397744,0.1455477857498231,0.0927772738173627,0.0062079616449311,0.1607371191150404,-0.4476435473358192,0.8089900369456142,52.346139569760616,4.921137808674575,5.706440886710876,4.30821145948155,343.9527159052328,3.790091991424561,2.8981573179544164,1,0,0,0,0,0,0.4872891559807272,-0.0292455066692919,-0.1315332016084228,0.1306700037819355,-0.0451656611959581,-0.2573399393951453,0.1262399883217318
51,0.4274866584862178,-0.2777046388905443,7.346004791593102,-0.0918070351003756,0.1260989249740644,-0.0151401291047609,0.9339139589002476,-0.1047810277332124,0.4084408573749245,52.34616112688504,4.921128274127266,5.576580707116084,4.39879986895281,342.9684309401345,3.790091991424561,2.985194781569475,1,0,0,0,0,0,0.485423810167357,-0.0182996299855689,-0.1796537171696914,0.102935490555559,-0.1208239808191276,-0.2957048430398319,0.0255430007091023
52,1.3463589344555833,-0.1693818534440904,7.331307537928144,-0.2369446763623449,0.1239406653187973,-0.0680782945684138,1.9450847298777765,-0.4414162114823272,1.0626185271998652,52.3461810498462,4.921118102431853,5.419066500906679,4.506830159287515,341.9303757493695,3.790091991424561,3.0794928027306256,1,0,0,0,0,0,0.4790126543758241,-0.0093634803936543,-0.2696670101771364,0.1064275861166705,-0.2332079577049039,-0.2460168869843369,-0.0267344262837832
53,1.2809415398311368,-0.6794118215002622,8.938112511113014,0.0496320716751662,-0.0360018557919192,-0.0008846784485964,1.5681065436089978,-0.3049640512442649,0.3018071868034351,52.3462004138771,4.92110740044575,5.142526058535831,4.584115673192052,341.12806067990397,3.790091991424561,3.15046971587182,1,0,0,0,0,0,0.4790360827400591,-0.0205766537674754,-0.1792823291197208,0.1958556476930555,-0.0624546195917953,-0.2435400173636845,-0.0184709885899635
54,0.7503454211037901,-0.0704192287018268,9.510187855584304,0.0076942429940985,0.1693635934025897,-0.0041887509490247,0.0398323472808594,-1.095337977334019,0.8407997987815725,52.346222096700245,4.921096521641339,4.834223453188785,4.652623418393237,340.3685594920036,3.790091991424561,3.2141440933635783,1,0,0,0,0,0,0.4691324161403886,-0.0198228260715746,-0.2342023047602094,0.1166661691887175,-0.1035776421254799,-0.1886868219502415,0.1495503607919799
55,0.1289108482718801,-0.0887458773651696,10.647226895378283,0.1409851127265163,-0.1642380700676391,0.0637201562599172,0.5302455422779119,-1.520452498664798,1.3373514357789758,52.34624206265397,4.9210811340882445,4.7621924545805445,4.825797721940952,339.9441830439423,3.790091991424561,3.2302767694702377,1,0,0,0,0,0,0.4691601305179941,-0.0244484026586016,-0.2318964830471049,0.0988537954034564,0.1256003090270168,-0.1948773735738369,0.0766143174487858
56,0.0991965663090788,0.2381653738039002,9.690865140711736,0.024367321094633,-0.2475764311284288,0.0003776187475265,0.9365084560625264,-0.9191807312657148,0.9844874401048592,52.34626395135184,4.921064243153473,4.753210907359307,5.028855947441021,339.5806701894088,3.790091991424561,3.2315228886245175,1,0,0,0,0,0,0.4677734518393547,-0.0198316008599878,-0.2605821112177655,0.088149164905888,0.1375185789967322,-0.2654517133996984,-0.0471854156858307
57,-0.2574752173788703,-0.8358840550661879,9.845739303996371,0.237969895866166,-0.0400410715162546,0.0065418324088411,0.0047755504645912,-0.2413392548469565,-0.9006178061077543,52.346283987720575,4.921047486620709,4.616338993772041,5.2047221324548865,340.16934911120086,3.790091991424561,3.217058347303958,1,0,0,0,0,0,0.4584100598540125,-0.0286471325311705,-0.1588663663148609,0.2555941199420411,0.1473478517179166,-0.2920639942204297,0.0494874622851991
58,0.3111636550641553,-1.4004670676172477,10.991413958365758,0.2916170833730658,-0.0352621732076954,-0.0368600873486001,0.6543927395862057,-0.6745930564536211,2.2256079045342956,52.346305900502394,4.921030457060276,4.445339173587394,5.372824569157428,340.930985072955,3.790091991424561,3.1976744391483987,1,0,0,0,0,0,0.4493778810228317,-0.0495452144286267,-0.2298360723717209,0.3178005895618732,0.0869493621858898,-0.1340664129678451,0.1442337018686265
59,1.7140637195747148,-2.152565707457305,12.619378270774078,0.5124199652180663,0.2238555102439469,-0.0858590812716924,1.0535048512595255,0.4785281980373637,1.370728893234788,52.346325945108525,4.921010158040291,4.4544027461643605,5.445827265357613,338.69599714245135,3.927796793518388,3.2663292223274305,1,0,0,0,0,0,0.4465565745615135,-0.03563935368841,-0.1553025653120799,0.5741997708837605,-0.0945984049153746,-0.0693694947929962,0.183694429500505
60,1.262003105237064,0.1594770286563096,10.050455712734829,-0.1724240563339559,0.1260301411488474,0.0091491875723015,-0.3348828744694772,-0.9276668510664146,1.3132946621336477,52.34634786070776,4.920988768862945,4.511515903443236,5.4916778548236405,335.91675315849324,4.1077902825398365,3.3625509317373337,1,0,0,0,0,0,0.4555061943293499,0.0197070505817211,-0.3549044025139171,0.1200115388275615,-0.0388860370014661,-0.1469940437719737,0.1203935744045547
61,0.3497800074358931,-0.7418307135627278,12.587714502772377,0.1548012999458707,-0.0086416598820681,-0.0658495708561761,-0.5345195413952701,-0.4927012441041611,0.4867951215930426,52.34637041623985,4.92096669834506,4.3322527345525845,5.601224141514107,336.4759172954425,4.125998869610991,3.466887635698519,1,0,0,0,0,0,0.4590103343907502,0.0153191290257655,-0.235723303255685,0.3036248074931856,0.1224676692366034,-0.1456656028376591,0.1135426529407202
62,-0.4582697288624207,-0.0067451582071649,11.240250918325426,-0.0121697420145204,-0.180191171120036,0.0787851123420259,-1.3589557051855867,-1.934004327365797,0.4260979795656477,52.34639570060951,4.920944082801111,4.0899125194775285,5.728956876042035,337.6413605904512,4.0945238511421636,3.5737653299080607,1,0,0,0,0,0,0.4604595264170464,0.022845488559481,-0.3262468069916488,0.0672596704902695,0.3032900900459484,-0.1796707404167233,0.1243651374557613
63,0.047153331710288,-0.633052031661033,10.839948554633516,0.2541063845345274,0.0469607621632245,0.0160507359611743,-0.1916191446423083,-2.2665067035007147,1.95604598612865,52.346419408356866,4.920920649841116,4.125114022082977,5.872598954645895,337.484763894526,4.095700120949403,3.61082138263666,1,0,0,0,0,0,0.4457763438120693,0.0222775397125483,-0.3770557556930604,0.2200263356121142,0.1276407220816103,-0.0592622248369844,0.2161490589316376
64,0.5585198244919624,-1.9781184427320584,11.733819949286776,0.5919310876228265,0.0231729134847238,-0.0091400380465918,-0.3978070607431133,-1.5552849809659124,1.9582583378974423,52.34644257685457,4.9208969443247215,4.234377559698127,6.0207837378473785,337.0880402701618,4.10690349283802,3.6260148475274168,1,0,0,0,0,0,0.4419973001644621,0.0114114644823256,-0.2757849084044547,0.4252802599313799,0.1832992892346204,-0.0196880432777242,0.277023502228284
65,0.1682414237791035,-1.918648385960864,11.854761994223669,0.1298946094265147,-0.1792271640821253,0.1156992205424089,0.3717619979239742,-2.579051120644247,1.6925255652809574,52.34646305095122,4.920876644192414,4.3118528588034515,5.827312947092482,338.6527599248743,4.051912077775063,3.587141208317811,1,0,0,0,0,0,0.449867706918575,0.0174012637223597,-0.3363803199139723,0.2384465285739499,0.2582338776499165,-0.0509166642114144,0.1874901548317145
66,0.3777101470945989,-0.8869461901024689,10.965947938604629,0.1542830575403013,0.0427060171192658,0.0176643174919791,0.2937162019916291,-1.988788693043941,-0.3726637974151572,52.34648511344846,4.920857479539679,4.3808454632959215,5.536294203409816,340.5737065967945,3.9765919680987394,3.5313377594387347,0,0,1,0,0,0,0.4563389122232588,0.0192731275314203,-0.3078757376546649,0.248582167756621,0.0750085773362715,-0.1482451758356734,0.1317905032749006
67,0.0252194115827151,-0.7466271056296065,10.508556073723415,-0.0398913043027433,-0.0362561366490713,-0.0457587634761075,0.8744124671867908,-1.385406126084776,-0.3935416412651272,52.34650018933682,4.920841871919492,4.397899026204695,4.892333604665015,339.9814407826738,3.9535179115674537,3.560177779622692,0,0,1,0,0,0,0.4796882701602178,0.018328721094423,-0.233377895172877,0.1795012538890026,0.0348399169225899,-0.188157562170378,0.0131955883932182
68,-1.171016508622513,-1.3776492135644498,9.606500680532616,-0.0021385672952713,-0.1649694900343335,-0.0415216748941013,0.2310311328939116,-1.3282630176173191,-0.4092556830751226,52.346512875606315,4.920827450344022,4.4010926506930765,4.147602304407177,338.9327385285798,3.946488444266608,3.615521604352285,0,0,1,0,0,0,0.5039923327514384,0.0113725115321121,-0.084277696508841,0.1014217867813159,0.1567380536820121,-0.2067072627196747,0.0186962817057929
69,-1.0922443250228953,-1.8494857405881144,10.88531840010712,-0.0192495397237341,-0.2621184304471648,0.0234268247910457,-0.2277138139616897,-0.9050707343937572,-0.7602420148863738,52.34652976448288,4.920811199343727,4.484919397187643,4.088584276927427,338.9468750523572,3.8912253527929663,3.5111027643525285,0,0,1,0,0,0,0.5047011994450116,-0.0067427824795606,-0.0112427271522324,0.1232496527430385,0.247970416306974,-0.2271089008969168,0.0337146890609901
70,-0.0533104314846266,-2.1654982831186977,10.682696518380228,0.2274255218190217,0.0363917908785762,-0.0037718159504572,-0.5519508313807677,-0.9429887053759916,-0.5236311169045628,52.34654809077054,4.920794338346302,4.59026310032164,4.22534799912123,339.1540387677196,3.821149710486037,3.35665858292302,0,0,1,0,0,0,0.4824915990890459,-0.0261381160427214,-0.0256021942968211,0.2519003433984568,0.0712391602458352,-0.1660226174360768,0.1929384756067237
71,0.8660254560325241,-1.917729956151192,9.969457425930935,0.1742772849310623,0.1544856145438962,0.0537395530811302,-0.0582343035962141,-1.8397167000082275,-0.1688836682829102,52.34656439873135,4.920780134533458,4.507185638165679,4.017898805528093,338.29143397502946,3.7996297136979047,3.2379290719071654,0,0,1,0,0,0,0.4725433651870148,-0.0341819267266516,-0.0893456928061095,0.1929895165660122,-0.069712055417053,-0.1100558254889258,0.2416400147509645
72,0.3926383939260311,-1.3389234801269807,10.200152241674974,0.0720647451310685,0.152923646307057,-0.0382691567012573,-0.6071914474257989,-2.1946477704540444,-0.1782116702838262,52.34658001636698,4.920766816723113,4.373827969282968,3.712171668690252,337.23454344958765,3.79302099422684,3.1303826403956547,0,0,1,0,0,0,0.4722780062778534,-0.0418694852095974,-0.0897678350611987,0.108759797118533,-0.098015009082941,-0.1211818163979852,0.2425720627147693
73,0.3907215939149502,-1.0514517800314878,10.34028771193953,0.0138476753202291,0.0205039647941255,0.0551139753237634,-0.2128792117444896,-2.006613823706945,0.3980450071460469,52.34659790785411,4.920756019233897,4.5561131352456785,3.724909749174405,338.7612105828857,3.790991478447761,3.114214450775915,0,0,1,0,0,0,0.483368770790185,-0.0422239265756608,-0.0953496864842937,0.0518385766766798,-0.0233661144747181,-0.1397649202893781,0.1908860585214319
74,0.2172595442598387,-0.6307664151056425,9.939198043296956,0.0837118135018815,0.0700212885399409,-0.0472795086120036,-0.0584376186159361,-2.4444579076101007,0.8667704074792688,52.3466165770631,4.920746062111899,4.822627623128904,3.8285744065878458,340.75708987662387,3.790368220899068,3.1266590407505,1,0,0,0,0,0,0.4829817681421413,-0.0289447532692029,-0.1568450152797934,0.0562494709991888,-0.0833864333696238,-0.1308786106212535,0.2019487068021313
75,0.5010324569691428,-0.7001341097814033,10.146606734313648,0.1432754220705771,0.0368898472189525,-0.0053450889533064,-0.4567497822675878,-2.21725275802492,0.5928285867024132,52.34663300231274,4.9207328889347055,4.666167166775986,3.6974133199678954,336.70027061434365,3.7901768205778654,3.123930315065081,1,0,0,0,0,0,0.4776050389102067,-0.0359911799654603,-0.1049903998051876,0.0553286484281793,-0.0488135736668161,-0.1313911015633898,0.2119210479195554
76,0.555682386318812,-0.1683092977517786,8.780271602921502,0.0200583544766337,0.0545649959801663,0.0442444082174598,-0.8454113898695252,-1.581400286910001,-0.3681485080916238,52.34664615010217,4.920718961249328,4.396835804420006,3.4992058498807106,331.5442170339701,3.790118042175529,3.1164506412505597,1,0,0,0,0,0,0.4739755249358317,-0.0388483479448087,-0.0674548457434051,-0.0307848861915979,-0.0516392987403079,-0.2031427492722863,0.1483427760543476
77,1.231423303629501,0.6317479144094547,8.631380526476061,-0.2718351828596888,-0.0347012792645103,0.1306328017571607,0.0089376060377901,-1.8449215631686957,0.1962552064569136,52.34666068686933,4.920707960405477,4.390957046279047,3.4104626920240553,334.8634150136385,3.790099991523578,3.093240921914316,1,0,0,0,0,0,0.4888951556062573,-0.0374863848570907,-0.1480956691091362,-0.1644010781623014,-0.0923593143159818,-0.2071924722766468,0.0600478807477068
78,0.6344835724680862,0.218325421765553,9.358704429880811,0.1327542276855556,0.1595348176773196,0.0234801935857308,-0.5476269200492896,-1.1699171493865232,-1.024916161779293,52.34667569870637,4.920697935477609,4.455380991409184,3.3529732890910555,339.72181865283835,3.790094448228373,3.065105765841881,1,0,0,0,0,0,0.4981686733784431,-0.0465337103114399,-0.0358587274922865,0.0252125041981197,-0.1304948888299191,-0.2238560472611583,0.1323008090755725
79,-0.3062227334544516,0.3905483207043199,8.515998257099639,-0.0922446151356586,-0.0370269862524963,0.042928659065964,-0.6646753362402544,-0.7416032236878003,-0.9574731531738938,52.34669087303082,4.9206879181135985,4.335722554737547,3.4794561143940745,342.03635058117976,3.790092745900844,3.057694224860372,1,0,0,0,0,0,0.5094748539836498,-0.0524162710354668,-0.0421824079525395,-0.0767662823677622,0.0205045863324583,-0.3042837620089009,0.0265043122922268
80,-0.4249500113547402,0.3081383287549268,9.09414324678649,-0.0867013673466033,0.0610905379177519,0.0710652843164327,-0.8196713180686849,-1.1021641267530855,-0.2552805229608623,52.346706102930575,4.920677903271657,4.166941366552064,3.6584658575288937,343.88887790230933,3.790092223121719,3.056771557602407,1,0,0,0,0,0,0.5041799098303196,-0.0596163046081898,-0.0841930068803975,-0.0653158616769778,-0.001269716087342,-0.2507113027684619,0.1097937219219874
81,-0.1361013983881251,0.7164197931526559,8.624224888774044,-0.2020617861971712,0.0442733302655227,-0.0989430482687449,-0.3459587274561286,-1.9971138335676264,0.6791488418316508,52.346723861801024,4.92066757142845,4.0642353069741155,3.7631622826444353,344.26625842372374,3.790092062577988,3.073650221935956,1,0,0,0,0,0,0.4953267649563527,-0.0522367467395126,-0.2069457703556967,-0.1011834300253886,-0.1037670205109785,-0.2080535173326008,0.0819670419043997
82,-0.2859324517662063,0.8767165683022091,8.276296153523914,-0.0055960720879469,-0.0633870524942292,0.0508252521360095,-1.0339188567187736,-1.4721714153027166,0.7299390339573525,52.346739975689005,4.920657133885432,3.979161052453888,3.8466411055879832,344.37570556295736,3.7900920132755416,3.0961027262455825,1,0,0,0,0,0,0.5024834405566495,-0.064869724312492,-0.1452982607942019,-0.1262704387270734,0.0616001662922395,-0.2416298848777809,0.0961708605939984
83,0.0135464743096935,0.7699569875520658,8.746478800126871,-0.0275661883807562,-0.1281173389738896,0.1153866446444639,-0.1066165627033798,-2.0855230415406267,1.0842766644220656,52.34675552694621,4.920647296782658,3.837240735070567,3.8811927737425767,344.4774262977494,3.790091998134925,3.0580681381936565,1,0,0,0,0,0,0.4970656213829963,-0.0698442212259149,-0.189395702471325,-0.1337499173799115,0.063244649944774,-0.2020079193826324,0.0734324726415675
84,0.5583708894241148,-0.1686276792634076,10.708432263833878,0.2333005707012865,-0.0163770124460166,-0.2972707980091541,0.7748638023993553,-1.8250216809347184,1.9227178191171368,52.34677088576769,4.920637659888618,3.6801510401496422,3.901775152483325,344.5777438035839,3.790091993485291,3.0010936591940824,1,0,0,0,0,0,0.4815168288754159,-0.0841347138720999,-0.1797361598196095,0.1612546286439559,-0.1553738467038972,-0.0962470866355544,0.0817018558404981
85,0.0385088325221694,0.8965986156750139,8.572063248274661,-0.1680408249002953,-0.0784386229483904,-0.134338361233297,-0.1323081423256765,-2.8869777958066183,2.1881796860052733,52.346786178770685,4.920627771909276,3.68397659770078,3.8969343972407215,343.53204712256337,3.790091992057404,2.986373848464708,1,0,0,0,0,0,0.4812403430980944,-0.0721118303768444,-0.2892152332649509,-0.1468436792706791,-0.0723339633481744,-0.1446751072199154,0.0935114799314676
86,-0.6001251525986886,0.3321020559480787,9.20848464141824,0.0852088270609409,0.0699218349929491,-0.1171209126089887,-0.3311902586955709,-2.20055426936474,1.7311120747452429,52.34680395922422,4.9206178002089125,3.730742406403277,3.8848351142106914,342.27824234456034,3.7900919916189046,2.9848847762647748,1,0,0,0,0,0,0.4774486643295077,-0.0771533071144027,-0.1932017534659119,-0.0171611437983911,-0.0660006479489579,-0.1430986699590057,0.1598176500803808
87,-0.1324928354804492,1.7005726941470911,7.905767723920905,-0.3492447933260431,0.0392725201929873,-0.1440479755245557,-0.5246343055842203,-3.3432753868177207,1.9731832857793008,52.346820080494226,4.9206090719617555,3.5024689749535063,3.877808077289517,341.6413402834661,3.790091991484243,2.9745425454610195,1,0,0,0,0,0,0.4723065787951556,-0.0657259375801014,-0.3566078476784427,-0.252858933992957,-0.1478381344276926,-0.1572498957857442,0.1088949669126054
88,0.9372584762745244,0.0078702310556062,9.857635929375826,0.0648966396131413,0.078676178517656,-0.0627834470716109,0.7140433915044074,-1.7991377144473373,0.5861422146164872,52.346835634276296,4.9206004404851535,3.200801294871722,3.8722292451171634,341.1164768508125,3.790091991442889,2.9614283521388525,1,0,0,0,0,0,0.4706557955882718,-0.0935220856214008,-0.1779080374333842,0.0731752489725383,-0.1545537734826204,-0.1290704818433713,0.0800030217568012
89,-0.0473619857998356,0.0476912309738096,9.845022065366054,-0.116267950915039,-0.2570859571602489,0.0409374826750533,0.5036657250688585,-1.4827540640398218,0.4557518321656755,52.34685099396136,4.920591523433175,2.9380104592661165,3.7313119672128217,341.30759374828284,3.790091991430189,2.978070113117384,1,0,0,0,0,0,0.4878714327252742,-0.1056093442619865,-0.1196240422561128,-0.0604730277712752,0.0942489550602413,-0.203861920412054,-0.0384883293989273
90,0.135929572462283,0.1980918962157029,8.4886292420908,-0.0361630792624337,-0.152082376400629,0.1184697612325511,0.2094610185885721,-1.5405353020520645,0.7292339545930246,52.34686628725972,4.9205825111599255,2.6855939134816045,3.551753468910108,341.6287432294634,3.790091991426289,3.0040291434090065,1,0,0,0,0,0,0.4924192932885342,-0.1163097676080184,-0.1070200171956403,-0.1059720497826646,0.0600098383907044,-0.1832987062348096,0.0172236094494196
91,-0.5618287660032941,-1.1671371611264836,9.780110764075037,0.2830115662323295,0.0490043339898467,-0.0816858168389975,-0.1173557149998838,-1.2994637857870006,1.2494117626440764,52.34688406781429,4.920574102820852,2.7075000659198203,3.725549406041023,342.4236104461755,3.7900919914250912,3.0007842440237833,1,0,0,0,0,0,0.4788836918220447,-0.1257254493108369,-0.0494464040861537,0.139697803203651,-0.0023396493671561,-0.1031717018820478,0.1579740048828099
92,-0.5185700948724171,-0.7844088638971833,8.83207492256151,0.118859687018481,0.1014639699912979,0.0868137348611622,-0.59020122023717,-0.8541132445611664,0.7488804042795998,52.34690018911884,4.920565895855511,2.8026094325013333,4.000233502072277,343.30451178772154,3.790091991424724,2.988394926850776,1,0,0,0,0,0,0.4793449551847882,-0.1215555056854844,-0.0757393472978031,0.0597356995110441,0.0439754846675549,-0.164487690581391,0.1618255612390532
93,0.492069410213301,-1.053643213153115,10.676415235397757,0.0910604869549711,0.225125504293797,0.0356535547855869,-0.0556531528363294,-1.3020115746587146,0.4368308655560293,52.346918252875064,4.9205574381933275,2.523875004541886,4.021501354158408,343.58724925206053,3.7900919914246103,2.9518637363968168,1,0,0,0,0,0,0.4676903639068029,-0.1276040043083257,-0.1118052915516564,0.1552073033569589,-0.1065965988599127,-0.0882033134883737,0.1978680858885634
94,-0.5302153994047445,-0.7065009799995331,9.691140143653037,-0.0161860373768238,0.0396518881400616,-0.0169494480876776,-0.4755962782881018,-1.5091585519670605,0.4967379767743377,52.346936981004994,4.920548579097432,2.1453804975661783,3.9704147770484335,343.76135133751717,3.790091991424576,2.907773337461561,1,0,0,0,0,0,0.4702286047530474,-0.1410524214250191,-0.1201487521027833,0.0401169431018705,0.0213316112725876,-0.1418034657868364,0.1244687232432233
95,0.2445925556206957,-0.3196434248863072,9.352901580758,0.1732993322091507,0.0840408221438071,-0.007317344959971,-0.191845757895682,-0.8702944438080293,-0.5647652530489427,52.34695342640727,4.920539268306644,2.0647094386887765,4.120160053208161,342.76998927189584,3.790091991424565,2.799328579912254,1,0,0,0,0,0,0.4605474765223359,-0.1504344924130805,-0.1047574082534717,0.1178297453155238,-0.0206001747021199,-0.1882402503729444,0.0724179944561197
96,0.6450076397950073,-0.2424340432442679,10.052784854095046,0.0664071247864671,-0.0028279328942602,0.0434704475760167,0.3699140124945227,-1.2331013018720087,-0.3713616829590777,52.34697160101414,4.920529806904264,2.063512596603384,4.327246101368411,341.56696173390037,3.790091991424562,2.670733165736145,1,0,0,0,0,0,0.4466807991183599,-0.155258029428181,-0.1644988834621733,0.0999856463349733,-0.002073815018781,-0.1798928436033482,0.0396881229008188
97,0.1496868426776617,-0.8422568430747686,10.0314162182329,0.2130918463757135,0.1053594431551945,-0.0410171681750764,-0.2616694908451653,-1.200942545452564,-0.3706079694077936,52.34698785709578,4.920519659598045,1.8798295327777543,4.093433825540797,340.85746302262226,3.790091991424561,2.623299040485041,1,0,0,0,0,0,0.4436485855928177,-0.1705151440174733,-0.0951520499378264,0.1615599489937198,-0.0290642936415613,-0.1488717979330243,0.1244159482450138
98,1.0989140507353048,-0.0452277715977748,9.395639121900553,-0.1538135264798342,0.1018559029345956,0.0414070179159315,0.1859775785387908,-1.759634856440058,0.006925094091728,52.3470059669496,4.920509283586406,1.6474499151045323,3.733738085685216,340.23757144727796,3.790091991424561,2.601278369599074,1,0,0,0,0,0,0.4510975044836151,-0.1714597538054516,-0.1665477540985229,-0.0189000010953434,-0.1386514898940329,-0.1292085939748893,0.0780407266589328
99,0.0159290707299337,0.3923852187176353,8.647450485417258,-0.0555500024174811,0.0192923435511404,-0.0144475597159938,-0.233077322832282,-1.2481565293056445,-0.6528069342376595,52.34702220088389,4.920498513473801,2.0529779689746643,3.888253911231719,339.96130295664335,3.790091991424561,2.5636087758189543,1,0,0,0,0,0,0.4524502631596466,-0.1590620694413465,-0.1396065356886086,-0.0270000739347552,-0.029373317562587,-0.2331542251744889,0.0166776157958152
100,0.2702160742403631,0.1728538936030899,10.007318248633808,0.0794539636510165,0.1194387071226917,-0.0104710841773143,-0.4633014570114677,-1.437862340714016,-1.1221405666140107,52.34703779320034,4.920487611953526,2.6287316611415195,4.1895849249401085,339.7474664593928,3.790091991424561,2.5210389828869797,1,0,0,0,0,0,0.4397337375231086,-0.1405926692859587,-0.1529077461701296,0.0744330045173145,-0.0534311619925548,-0.2200052195813289,0.1003857057542037
101,0.5263281423234589,0.8482593764915357,9.541844920430602,-0.0574812820903049,0.0325120385135386,-0.0564637426406652,0.122157802550408,-1.477345005455195,-0.1874702083398647,52.34705567602757,4.920476030932698,2.986098552205773,4.1041434691016265,339.8313833923921,3.790091991424561,2.507148678988127,1,0,0,0,0,0,0.4474309174988896,-0.1279789470321095,-0.2077883744574472,-0.0033073342136402,-0.0946601480739761,-0.2311696073783221,0.0257776019409651
102,0.2996756119399332,1.1998325062192678,8.535764509797009,-0.179655242035584,-0.0513309079435204,0.0614414473290607,0.3209859403433931,-1.3512655061201242,-0.4063762339326219,52.34707183231232,4.920463905499327,3.2851889036417137,3.908272147841091,339.96937673812926,3.790091991424561,2.5022384147620382,1,0,0,0,0,0,0.4613315120308811,-0.117984513911869,-0.1919971878260994,-0.1141952163000257,-0.036480794299435,-0.2875327585860955,-0.0331464596641962
103,-0.2276414229784831,-0.2980302854514936,9.44458258377434,-0.0616827185938507,0.0253372240915455,0.0673029354896312,-0.532597759615525,-1.5157788105928938,0.7176562585332439,52.34708739807042,4.9204528699077645,3.4405937129801547,3.995244964573316,340.93557641458665,3.790091991424561,2.505475118677684,1,0,0,0,0,0,0.4569472262416141,-0.1276890023269504,-0.1397879286715926,-0.0174125621178914,0.0203628431525648,-0.1988272517598701,0.1502290701724939
104,-0.0803383743848647,-1.3390279472567452,10.540532172950025,0.1024578769630553,-0.067889458340323,0.0121630152245076,-0.641658937961231,-0.7108295714822949,0.0896137688674985,52.34710527181395,4.920442197709312,3.557656021096983,4.1629738185617935,342.05219057102005,3.790091991424561,2.511262660739284,1,0,0,0,0,0,0.458717582193936,-0.1339060403700509,-0.0525749256858826,0.1445489315803905,0.1004940120561395,-0.2131706270127873,0.1347898914727807
105,-0.0675154403306432,-0.7168613696117404,9.218222408945715,0.1471445512949577,-0.0317502265821759,-0.0582203010119116,-0.0565522810206801,-0.8369939948785873,-0.1146617313813235,52.3471214249918,4.9204319645216215,3.794076601570493,4.11440742707864,341.31384611374335,3.790091991424561,2.543893998550666,1,0,0,0,0,0,0.4588391992737126,-0.1154769957856745,-0.0922057393535088,0.1254957402376419,0.0228193570762723,-0.2448190256504721,0.0726533984665627
106,-0.0709252255387159,-0.5827053758372245,10.296823126163186,0.0306061055005394,0.0323349663559486,0.0074153609864934,-0.3378814106145666,-1.7580123704505022,0.0508406873086124,52.34713949964959,4.920421877716173,4.0623482985050865,4.0040857368896745,340.23861382440225,3.790091991424561,2.5849307422804344,1,0,0,0,0,0,0.4571613099898271,-0.0965399192064928,-0.1276831984596337,0.0607932692669467,-0.0070505716341011,-0.1985555000216506,0.1592683115244922
107,0.2328583382605599,-0.4066386812891768,9.968065189587833,0.2056119309205509,0.0895888837897476,0.0068062172138785,-0.2421757756819686,-1.2066150767501271,0.7240484416213748,52.34715572154583,4.920411839719916,4.298286643610588,3.944007833482592,340.1251793091342,3.790091991424561,2.562320242697408,1,0,0,0,0,0,0.4613696071411526,-0.0992484960920937,-0.0992254933092934,0.1026664985313334,-0.0480465734695613,-0.1895085026087567,0.178156531567769
108,1.203064404131907,0.0851107871514878,10.623781358549037,0.0683367244997944,-0.0186897902483317,0.061106438548983,1.013405619719572,-0.6052069282877457,0.2357609027439589,52.34717381970726,4.920401817998429,4.5255971801528,3.898275308642456,340.1864214495053,3.790091991424561,2.5197803366840428,1,0,0,0,0,0,0.4699206656625285,-0.091856262722997,-0.1069357447214909,0.0996844173696163,-0.0877201074102261,-0.2333350113209289,0.030116003190566
109,1.2023090122669131,0.6196694056696479,9.704416227654145,-0.0254729335149708,0.2012884405550101,-0.1432987347069237,0.1432838118617296,-1.1060895730015483,-0.4753703275811502,52.34719004964241,4.920391801703544,4.49909795996206,3.767327875179444,338.8881225190055,3.790091991424561,2.5687246067705547,1,0,0,0,0,0,0.4621374686057404,-0.0740447142285059,-0.1564477871351403,0.0716398207146816,-0.2663116949334868,-0.2365466456964603,0.0798113214559104
110,1.4944681696550308,0.5211579482722151,8.903262535758708,-0.1345573745009966,0.3431992221782428,-0.0805592926512058,-0.4481583324004853,-1.5919685385409943,-1.0156326467769023,52.34720564059104,4.920381787218088,4.40486993049759,3.612050437089149,337.3429108862044,3.790091991424561,2.6463144993443493,1,0,0,0,0,0,0.459763428429438,-0.0649727264424486,-0.1652094061430556,0.0118063559177654,-0.3299993375276323,-0.2166440061391291,0.1573426006500656
111,0.3566208643922279,0.4510069983019566,8.207870678935468,-0.1915110582091337,0.0853632268579722,-0.0955603584417414,-0.2677861466506794,-1.696560382400072,-1.2911356908034397,52.34722101298813,4.920373044704816,4.628626379934489,3.5855785071533632,337.92157220220463,3.790091991424561,2.692159408621935,1,0,0,0,0,0,0.4709285787304265,-0.0527651761284348,-0.1459698196322939,-0.0567654708936604,-0.1550290234995568,-0.2901061760020526,0.0496495905923075
112,0.7625040421175591,0.6456344228943022,8.337198825848168,-0.1974096834216442,0.0470372249837359,0.0213178128530618,-0.1253551776555627,-1.4369988466086805,-1.1943045276815136,52.347236310634365,4.920364408471369,4.937236669648372,3.595882372504632,338.885985133285,3.790091991424561,2.7280642381520743,0,1,0,0,0,0,0.4813287059275027,-0.0440593421331871,-0.1372000561012511,-0.0818609140786312,-0.1242529339413344,-0.3025845052151166,0.0400879390657259
113,0.5105246566927817,-0.023434913420833,9.392985326195353,0.0950639425163855,0.3422278200580137,-0.0997246669672357,0.6119602191673525,-3.4819473882182006,1.0934274506630322,52.34725409267602,4.9203580325709995,5.058244566115943,3.595251951444915,342.04823793270043,3.790091991424561,2.725715244956094,0,1,0,0,0,0,0.4659151090065234,-0.0411328050938938,-0.2419118095043318,0.0345722998556513,-0.3257558151588815,-0.091590723503376,0.2744613613568057
114,-0.2274960206425383,0.0039379719686843,12.252385051899044,0.1368455413265334,0.2429262517594819,-0.3046011664325836,1.454112079803251,-2.271460541665843,1.8494498084456468,52.34727021448922,4.92035272819054,5.129190395665052,3.5914994520782137,345.60965085514806,3.790091991424561,2.7113882694030207,0,1,0,0,0,0,0.4822942204592446,-0.0495818528272851,-0.1858871440328048,0.1767053732083169,-0.3279306943331748,-0.0984951726076518,0.1646339532896899
115,-0.0270112367379064,0.2301624171171578,10.418821192946444,0.1703092258080079,0.2717210626620046,,1.9131749629009929,-1.5548728437328192,1.058602509296582,52.3472882784194,4.920354137938283,5.141095126141963,3.8012010453118057,208.0721128107219,3.790091991424561,2.7028254181183766,0,1,0,0,0,0,0.107671191901351,0.0817229308878281,-0.1437036476597335,0.2245219011100614,-0.4292353934357546,-0.1243171167903614,0.0060461077325672
116,-0.0093816837061476,-2.0555555241904133,10.623635332799171,0.4584020612046089,0.0633561073356376,,2.2606724366996565,0.9725520329619526,0.01193554565006,52.34730700660882,4.920358104264084,5.137244383857102,4.071846914490618,44.908914890570536,3.790091991424561,2.6960676096356715,0,1,0,0,0,0,-0.3240836561751831,0.202870648199931,0.1553431347005368,0.487968985080941,-0.2415336069816885,-0.1401422397657118,-0.1455698093866445
117,-0.9660091748453572,-2.3385773016124274,10.463503521535538,0.4655367084377935,-0.1856156593505063,-0.3918807926906639,1.3657036398807714,1.079756283653273,-0.2479042894261865,52.34732094206913,4.920373729681772,4.790854473735369,4.1419758298388745,29.720572871998172,3.790091991424561,2.6437786336470297,0,1,0,0,0,0,-0.3604550487563936,0.1924182812589862,0.2308971682505388,0.3875075915528057,0.0518874221404623,-0.1886553353702286,-0.1560331738950349
118,-0.6551898740595987,-1.345538799103342,10.558485508219349,0.2670136771308216,-0.147086808201668,-0.0258099951154552,1.1499538462893302,1.225832057870759,-0.155938638554115,52.34733574824212,4.920393242667008,4.353057952555142,4.1548537115026525,41.406645510730336,3.790091991424561,2.5772328085751672,1,0,0,0,0,0,-0.3252439490492972,0.1620415823036944,0.2021056301381464,0.2122163829105242,0.1159415997805052,-0.2079622194121012,-0.1312014065765714
119,-1.1805217603596223,-0.918246103630584,9.849081417948932,0.114411849214781,-0.2036942810549843,-0.0100438807059249,1.3687013207242604,1.1665520817746085,-0.5112151684820471,52.34734583229896,4.920421680122554,4.108185388243963,4.090654665856893,53.96342061635135,3.790091991424561,2.5402895736714086,1,0,0,0,0,0,-0.2898864034613003,0.1463266485370739,0.1762267846868383,0.12785509039699,0.1459519110790356,-0.2590030356432657,-0.2038181520995054
120,-0.1039025342084281,-0.955730042093322,10.151693085452123,0.0753811051967519,-0.0570299781048687,0.0098324636808737,1.0213733120433592,0.1125911871601279,0.6506960870903967,52.3473543012578,4.920453093322823,3.9147947758375095,4.004448794478035,66.67832812680084,3.790091991424561,2.512615586265951,1,0,0,0,0,0,-0.2652368959356994,0.1259623983814474,0.098014144894139,0.0978681363305907,0.0135907622170469,-0.1437756678591008,-0.0556919233453085
121,-0.2257115082791397,-0.7839000635333904,10.268354221246026,0.0203708886555481,-0.1021798413471824,0.1563276573317333,0.8811818575784375,-0.15689075975626,0.9719433062278012,52.34735970784486,4.9204874057984735,3.7725704403037983,4.022704885365033,73.03855355566938,3.790091991424561,2.5039502283675588,1,0,0,0,0,0,-0.2471414202178693,0.1134407687189755,0.0832518332202734,0.0207630444939936,0.0886744934566505,-0.1376837583011754,-0.0305032376159612
122,0.2989438115628098,-0.3156151434900085,10.051856995997367,-0.1040881046189377,0.0125013071797891,-0.0180245026069221,0.5010048426978455,0.2414080535933188,0.1805651148287024,52.3473640670137,4.9205223671563365,3.643999830850388,4.070786312511173,78.2446687871133,3.790091991424561,2.501236906777609,1,0,0,0,0,0,-0.2374583330562983,0.1128712671563078,0.0503686851470019,0.046227959207614,-0.0513430844140433,-0.170853320195191,-0.0650046198806341
123,0.1171619834712671,-0.3643789534222421,9.625477028073538,-0.0418767670531526,0.0223453072729193,0.0473725696352276,0.8006783068579942,0.1352549071727224,-0.1922123953551838,52.347368067935726,4.920557862717469,3.379279697075592,4.030927760030236,77.92168266540291,3.790091991424561,2.5003873037794624,1,0,0,0,0,0,-0.2393752359262263,0.1053141458783082,0.0624119427804415,0.0426781585045552,-0.0307315612996232,-0.1749300500094136,-0.0768423178826594
124,0.5788874498328382,-0.5522881299828515,9.710398093850229,0.0466434669645489,0.0993982679215511,0.0713654016857224,0.560436361808838,0.2444597260725063,-0.6906014473712132,52.34737194632715,4.920593218559289,3.078228049173423,3.965961323330669,76.59452397815805,3.790091991424561,2.5001212736645164,1,0,0,0,0,0,-0.244781379442608,0.0943750608194398,0.094384863127785,0.0836966497958116,-0.0654016091861391,-0.1564906420450502,-0.0409213421907765
125,1.1546423380300543,-0.4542087641983862,10.265231163279449,0.1028006527475417,0.1752261129651066,0.0231682548690401,1.1746940511789623,-0.0846758089654606,0.1106551509729362,52.34737578280964,4.920626938602512,2.9059098936652905,3.986708926718443,74.3075292518549,3.790091991424561,2.5000379735558633,1,0,0,0,0,0,-0.2577074583453335,0.0913679293668718,0.047491399538989,0.1281681380442358,-0.1744405905118593,-0.0865335837754442,-0.0194567101400512
126,0.8926174272361602,-0.5787203454920904,10.4297262009142,0.0108302817509542,0.0852846040345618,-0.0229312240968097,1.0515477043308052,-0.2850689661616584,0.3747093448101938,52.347382114920386,4.920660431052882,2.7679442834259884,4.031929555529008,71.84621414991334,3.790091991424561,2.5000118903881616,1,0,0,0,0,0,-0.2659521004032385,0.0898694671141803,0.0320806756425482,0.1022971707406618,-0.1295881138790892,-0.0832892238366983,-0.0382937406919377
127,0.2041943452329806,-0.2890879713508062,9.841214428202449,-0.085395483566742,-0.0546522161267793,-0.0450300661396075,1.0414162661769697,-0.1349567302334199,0.2334723517701885,52.347386790644656,4.920693211931047,2.6269083211182864,4.044840744769961,70.86725137426934,3.790091991424561,2.500003723152268,1,0,0,0,0,0,-0.2643873907015189,0.088435324889686,0.0311881484351534,0.0351243511315816,-0.0386184205664606,-0.1394615050002213,-0.1245808765803106
128,0.3452906370542005,-0.0348170283074457,9.31515337434663,-0.0344460110421227,0.076176879765413,-0.0347769952924846,0.7936449683887621,-0.181862013440047,-0.0507401495921243,52.34739340979997,4.920725755545019,2.485053035055285,4.048527089077866,70.15750563552905,3.790091991424561,2.5000011658040613,1,0,0,0,0,0,-0.2701480883873329,0.0869251248047089,0.0207814598319962,0.0346545297395026,-0.1000994507115449,-0.1355180654880863,-0.0855600914475239
129,0.6475821505840729,-0.5201116519755287,9.91659798745238,0.0367564385438373,0.1301646556969637,-0.0444566065660449,1.0727298351761403,-0.3132885793747193,-0.2583163445466223,52.34740069366397,4.920757902204219,2.266258630916316,4.049579597417943,70.02860534553122,3.790091991424561,2.500000365039894,1,0,0,0,0,0,-0.2762968460778982,0.0792468446958574,0.0321551281824948,0.1096772570347854,-0.1412697751287298,-0.0953053711809984,-0.0591442306615624
130,0.8001371814962996,-0.4852002412006651,9.809572479160172,0.047570666743411,0.0790655639569097,-0.0406671381301098,1.3353996718388348,-0.1246347156933466,0.046044435654748,52.3474056949149,4.920789916504185,2.026933102852944,4.049880104834887,70.00519515247954,3.790091991424561,2.500000114302333,1,0,0,0,0,0,-0.275365722833488,0.0684107794268823,0.0337026665463957,0.1104584174161626,-0.1286106674757999,-0.0903295462080263,-0.0934694898628615
131,0.7509428371009781,0.1589599078714476,9.732926042098416,-0.1265872318798147,-0.0243652070234987,-0.0314198039442663,1.1565910393063572,-0.4670845818863816,0.2025007557556285,52.347412425409594,4.920821886670741,1.831239158735999,4.049965904352287,70.94208781049058,3.790091991424561,2.5000000357906726,1,0,0,0,0,0,-0.2710090531213975,0.0666223857822706,-0.0158432281623716,-0.0018775186131494,-0.0910381855279193,-0.1088741384007751,-0.1381518828576459
132,0.4822924021503698,0.2492440961645239,9.009646955122838,-0.0492270554122008,-0.0882691334700943,0.0485073676820727,0.8320456005597965,-0.1289904517333933,-0.4999239314712938,52.34741974735481,4.9208538421216055,1.6471883945396937,4.049990401442112,72.05338562408228,3.790091991424561,2.5000000112068776,1,0,0,0,0,0,-0.2641200486186305,0.0569950065964273,0.0287295028675376,-0.0267405338350716,0.0073192131795512,-0.1606905448443359,-0.1670963402991942
133,1.4015081383415933,-0.2003420630412964,9.718023528531091,0.0852280608594239,0.1709169996507289,-0.0109169642880392,0.7487472834024347,-0.0887997194825314,-0.3219777242261945,52.34742476163061,4.92088579266572,1.4472933460953863,4.071431740751248,72.541647282153,3.790091991424561,2.500000003509129,1,0,0,0,0,0,-0.2737405797510511,0.0471084212998425,0.0284831510762988,0.1054775984839784,-0.1699821582873497,-0.0740821481356962,-0.0519032412073509
134,0.3630062895608219,-0.141094912154237,9.402886700113216,-0.0156757777918407,-0.038141078623563,0.0506681444418638,0.4096222261030012,-0.0700413357977774,-0.4056806348160138,52.34743149658017,4.920918059415959,1.2431702488212095,4.0989882605974985,72.91675638890537,3.790091991424561,2.5000000010987886,1,0,0,0,0,0,-0.2672055515559394,0.0390952742863552,0.0482537675805109,0.0080400563049258,0.0195177063453459,-0.130347821609682,-0.1128498068239099
135,0.7046468238223212,0.093060268072732,8.947648015377945,0.005754470078509,0.0485944944193352,0.0596299466881061,0.7214346754456606,-0.3484246912474114,-0.1191915034301698,52.34743631008675,4.920950113758667,1.1326957747392823,4.103283569006426,72.28925551333752,3.790091991424561,2.5000000003440563,1,0,0,0,0,0,-0.2732207401295142,0.0386023990802487,0.0080779737583352,0.0011256807951673,-0.0571899621428679,-0.1018913070843501,-0.0949212502545447
136,0.8500025500789651,-0.3062837550272076,10.022101677695368,-0.0224975877167442,0.0040240716373309,0.0599391631596739,0.6966321132646812,-0.4149870217911642,0.3378984151092176,52.34744297636754,4.920982097276939,1.0472113576865134,4.10093744162066,71.47966588341497,3.790091991424561,2.500000000107732,1,0,0,0,0,0,-0.2759189884717951,0.0322283274034033,0.0187339572547762,0.0258365149583061,-0.037106329702471,-0.0621241150554941,-0.0708652115795871
137,-0.0480515056055377,0.0110979878374783,9.369635854595693,-0.187987624427272,-0.0187921114825272,-0.0605332763041169,0.4629250326037255,-0.5657828337706545,0.10228799757366,52.34745027634979,4.9210131036531095,0.8591885500873646,4.103840090348939,70.39148817656366,3.790091991424561,2.500000000033733,1,0,0,0,0,0,-0.2805140725822602,0.0357623789072427,-0.0128522655292164,-0.0363660096941458,-0.0310214051008422,-0.1037764481376175,-0.122819211493649
138,0.6933154307437192,-0.2900089118562817,9.977470254764864,0.1016252078644607,0.0747798644305771,0.021949911883778,0.6208190239538608,-0.5485084606336778,0.2368931913012715,52.347457793075954,4.921043784214376,0.6438033627567958,4.108241345874036,69.25271476769403,3.790091991424561,2.5000000000105627,1,0,0,0,0,0,-0.2881446902713613,0.0215266301072125,0.0219662362847695,0.0614570959579404,-0.0637267298092213,-0.0404083184326518,-0.0460820293830735
139,0.0345183629391246,-0.4077491365671257,9.839948181995334,0.0570123455957365,-0.145285660910282,0.0751458509404188,0.4351324067191133,-0.4172171159377561,0.1536576466870025,52.347465383934704,4.921074356137041,0.5251109032814271,4.116642640534762,68.75946313644579,3.790091991424561,2.500000000003308,1,0,0,0,0,0,-0.2830074581599359,0.0143906212924365,0.0561829424284032,0.0019038938609988,0.1111952317416119,-0.0863136247520539,-0.109254034041056
140,0.1043621219276501,-0.0680141917721272,9.752213432087109,0.0593584822375489,-0.0515269786305687,-0.03800560914998,0.5735799450172931,-0.0835681716294469,0.131870364867412,52.347473000148895,4.921104891835621,0.4322208860164649,4.12618634895557,68.38344777699676,3.790091991424561,2.500000000001036,1,0,0,0,0,0,-0.2861822469188244,0.0146985773612948,0.0412535566644517,0.0384396594572281,0.0129320332889814,-0.0917307919401578,-0.1336245777002869
141,0.0472446995649296,-0.0040452330850754,9.361585346966224,0.0924022599666516,0.1195154754262926,-0.0034223422132211,-0.4797516042377104,-0.2141469682984189,-0.2671855719884889,52.34748062503538,4.921135097613554,0.2807500042320549,4.150345570393983,68.2333143233754,3.790091991424561,2.500000000000324,1,0,0,0,0,0,-0.2919097685529883,0.0108456605675154,0.0460389863011951,0.0236131815477817,-0.0178687562485516,-0.08333375828422,-0.0262083037551509
142,0.1155695256818665,-0.2872409522418761,9.94367774885388,0.0737117991568258,-0.051566764232662,0.0235591561280255,0.5110244168475719,-0.469998876912444,0.2230725824910386,52.347488252888034,4.921164875541667,0.1136468101840401,4.1786780876429415,68.12421059783273,3.790091991424561,2.5000000000001017,1,0,0,0,0,0,-0.2924147391840658,0.0040557245426137,0.0309077573169313,0.0306300690622766,0.0424830805813678,-0.0601309179931835,-0.0967429122300922
143,-0.0591074964128624,-0.1302141989997351,9.951759296695208,-0.0984697455952344,-0.063613609736675,0.0461216230500604,0.9261577209044032,-0.4726783402771077,0.3234005156861642,52.34749588175519,4.92119419296679,0.124361573374408,4.1153190751926365,68.51358838120548,3.790091991424561,2.5000000000000315,1,0,0,0,0,0,-0.2879169207546496,0.0078293880581774,0.0105752080335184,-0.0187441405178178,0.0270403725622899,-0.0703608294878063,-0.1384544581848145
144,0.1167778951841692,-0.2221089143161781,9.415509428562846,0.0286047401771026,0.0909613362516833,-0.1117675364532187,-0.0377875055167581,-0.1582161057564835,-0.7443381636046171,52.347503510969354,4.921223356843378,0.1825270625107709,4.025780541889811,68.99349775575308,3.790091991424561,2.5000000000000098,1,0,0,0,0,0,-0.2886499938956327,0.0105833133543002,0.0543865768944167,0.0575588568725268,-0.0661372930407017,-0.0925050633104967,-0.0901904131234312
145,0.4205142512700006,0.1909187589053076,9.603512705202716,0.0171687435096955,0.0727004456177227,-0.061457575492093,0.6034433844399557,-0.3903073750585441,-0.322976907404268,52.34751114030218,4.9212527873634855,0.1581534434832665,4.043085106230007,68.99881909658161,3.790091991424561,2.500000000000003,1,0,0,0,0,0,-0.2888909184489181,0.0119731740470674,0.0130817515364326,0.0300314792513649,-0.0901626965374216,-0.0753973224574911,-0.1172719908605807
146,0.158279762136732,-0.4851696880391114,10.182289494223571,0.0372941841961977,-0.0387584434015832,0.0186966400182315,-0.1085259843600685,-0.2731966949150515,-0.4988023111132069,52.34751876967562,4.92128230679229,0.1117542606826892,4.090894857823711,68.91794825359446,3.790091991424561,2.500000000000001,1,0,0,0,0,0,-0.2871954087485194,0.0025790938188831,0.0726143879990466,0.0353974643504184,0.0550262150163245,-0.0793539869261551,-0.0784587734367616
147,0.3886438560848285,-0.0431535114251637,9.487648732294064,-0.0025239819816892,0.1050146369916646,0.0130758870701817,0.8100767353505255,-0.5301079804073852,-0.2109573593259811,52.3475238891006,4.921311855866506,0.0306596259110845,4.104545281681705,69.3533753050384,3.790091991424561,2.5000000000000004,1,0,0,0,0,0,-0.2916502120432513,0.0071709815929826,0.0027024778821616,0.0273491562260335,-0.0826648158706374,-0.0573324830348663,-0.0951942431609171
148,-0.1351998313581172,0.1671656528061637,9.31893685902025,-0.0402998905814694,-0.0743616971500198,-0.0101092479170396,0.6318178433279953,-0.6189125699609918,0.2591047866947829,52.34753066001417,4.921341414825586,-0.059693492138796,4.108442688911226,69.88256342215138,3.790091991424561,2.5,1,0,0,0,0,0,-0.2860930950620185,0.00185015019796,-0.001632278607417,-0.0380076109700631,0.0279601562045006,-0.0805665050646453,-0.144792237751348
149,0.5657923330866909,0.1849218628321052,9.603409331990257,-0.0657753862781667,0.0717851947609831,-0.0943936999023178,0.3563545468370299,-0.4801597814702858,-0.4847877633601872,52.34753799578379,4.9213716127650695,-0.0970973395558584,4.141707317190458,70.51062345183591,3.790091991424561,2.5,1,0,0,0,0,0,-0.2902042856257999,0.0050172755376161,-0.0121774807552418,0.0216900115809201,-0.0980427100935945,-0.0742740452201827,-0.1191575296561194
150,0.3812579603879502,-0.1030891487602139,10.710730617719314,-0.128725767587786,-0.1251463601257472,0.1043318555983743,-0.0227422624872654,-0.6794689564438594,0.2687314421299079,52.347545524750274,4.921402023763983,-0.120371663367745,4.183356400796499,71.15664007852055,3.790091991424561,2.5,1,0,0,0,0,0,-0.2826529892726372,-0.0057158944985758,0.0114161794764522,-0.0557799026905392,0.0942709527520534,-0.0545666488917739,-0.0851507213094461
151,0.4634877108715403,-0.6581279819700013,10.821109458993128,0.0296942058083624,0.0299487751221413,-0.0061215428844559,0.4369791786007947,-0.2643163882105615,-0.2983164271498412,52.34755311979555,4.921432823646917,-0.1391812413964315,4.223827212427484,71.4785625364337,3.790091991424561,2.5,1,0,0,0,0,0,-0.2889212231045653,-0.006535846529998,0.0422322937521236,0.0989437882896937,-0.0137673515882694,-0.0418097884544963,-0.0771867232478754
152,-0.2828240300615482,-0.2910967008425493,10.1129264446398,-0.1279136693128027,-0.134491158830535,0.0531490236516463,0.1491232643551734,-0.1415701002698901,-0.2770348310840479,52.347558227479325,4.921463753198002,-0.1567993906433412,4.263961949870522,71.74162471514974,3.790091991424561,2.5,1,0,0,0,0,0,-0.2814897113890948,-0.0064233643897879,0.0375960341529786,-0.0200005986868058,0.124333520076073,-0.1068579969032896,-0.1442813465523237
153,0.4095689341600284,-0.6229267024928409,10.376807074087036,0.0284114168347467,0.0995992043749919,0.0123188825790939,-0.1292977437274471,-0.417492083879784,0.0280737983111311,52.34756499437708,4.921494090300762,-0.0804869965343896,4.286138210935634,71.50296085020591,3.790091991424561,2.5,1,0,0,0,0,0,-0.291942791280001,-0.0057599791566397,0.0258712953187147,0.0730959578818161,-0.0198544195237657,-0.0292215233088564,-0.0104933563549174
154,0.7688412843510104,0.1228122588253896,9.820964247786376,-0.0374605217964836,0.1718655875249395,0.0128067602041917,-0.7155864057658344,-0.4626493085898171,0.0293708630478358,52.34757232877318,4.9215245477018,0.0208907696945454,4.303187049116692,71.17318238252712,3.790091991424561,2.5,1,0,0,0,0,0,-0.2922608398626802,0.0016804096172026,-0.013209040862154,0.0044659388875753,-0.0728639165622682,-0.0448170052896724,0.0126322345981989
155,0.5015507419654628,0.4324138328166648,9.342983912605012,-0.1657679854229533,0.1732479695277426,0.000398157069608,-1.0310833833312705,-0.9497261742662126,0.4239945081168766,52.34757985726987,4.921555363056899,0.1084414948431573,4.340206614429549,70.04938641934271,3.790091991424561,2.5,1,0,0,0,0,0,-0.2973070380641958,0.0104175987103963,-0.0660935260628592,-0.0775642268715598,-0.0732024203201963,-0.0441886774287536,0.0323138303893023
156,-0.0313260063681618,0.5839124418177211,9.233054465611376,-0.1949729109355491,-0.02840443643073,0.0144612719256701,-0.4958223075276597,-1.2866107364390005,0.8552529648185183,52.347587452154464,4.921586297766969,0.1923024863581182,4.382928131352993,68.78139141649011,3.790091991424561,2.5,1,0,0,0,0,0,-0.2979492182174534,0.015508548664553,-0.089551843812556,-0.134517795636421,0.0363373666345596,-0.0644379941693722,-0.0445585543138669
157,-0.1158766440344143,1.5405182293920008,8.367871096916872,-0.4266033102246476,-0.2020008895523444,0.0796284490291521,-0.3383414699916171,-1.4510460177802136,0.5328222092334978,52.347595069745616,4.921616954432137,0.1314264945382942,4.384408612975019,68.26467123864947,3.790091991424561,2.5,1,0,0,0,0,0,-0.2924249129091757,0.0225840553343356,-0.1420592922740051,-0.2961220675308769,0.1106734857317212,-0.1366407781091944,-0.1636759382342745
158,0.4499232081698606,1.3168050191777274,9.170696179404048,-0.1758821466698524,-0.0774056508611118,-0.1086642599622265,0.8433318047886625,-2.341677677376752,1.540612154477174,52.34760269510306,4.921647518386968,0.0319274263463489,4.3741138001879065,67.88439364514046,3.790091991424561,2.5,1,0,0,0,0,0,-0.3080659720654606,0.0224557539475239,-0.2057572661774789,-0.153336670266772,-0.0775991689092861,-0.0179012203307672,-0.1213686585157668
159,0.5058414053690025,0.8720823959172089,9.521771605961076,-0.1131839153818844,-0.0533679134849727,-0.0185876454545739,1.044647720490394,-1.7466416326627452,0.8976529526742396,52.34761032311679,4.921677733586568,-0.0064609818886182,4.349740126830798,68.59279312424843,3.790091991424561,2.5,1,0,0,0,0,0,-0.3028882516955124,0.0156835234146407,-0.1402443597994013,-0.0932376432675646,-0.0502974693900764,-0.0327295823571316,-0.1275286916334646
160,0.1637664057888007,0.2798742000162358,9.177218574476091,0.1324589743172931,0.0739883888788925,-0.0320267675056856,0.6684581068660527,-1.2794556747971404,0.8732053368302025,52.34762046200138,4.921707832498423,-0.0285420051094716,4.32134638024076,69.49891241020354,3.790091991424561,2.5,1,0,0,0,0,0,-0.3020083415739335,0.0049478556448106,-0.068362931680323,0.0072779671768166,-0.0558970777196428,-0.0181626413897334,-0.05067308812463
161,-0.6330257041481391,0.6980608229302285,8.088894215962622,0.0043086280809021,0.0730425855126813,0.0528035267450804,-0.3305298312168197,-0.5161541192558005,0.1434727105098568,52.34762894971287,4.921738210477903,-0.169709283165052,4.359681061356409,70.19542869727849,3.790091991424561,2.5,1,0,0,0,0,0,-0.2932517757490788,-0.0006346056530835,-0.0296090742771411,-0.0877187598106927,0.0450904373516414,-0.1109520362702076,-0.0728462996688087
162,-0.5713976011801702,0.4556894503164889,7.999262873199337,-0.1058561841552374,0.0575649341646473,-0.0140713424920669,0.0568784802166617,0.2676892515839505,-0.5173150075140415,52.34763436271388,4.921768681508738,-0.3426547319921854,4.417067741095705,70.85387798956174,3.790091991424561,2.5,1,0,0,0,0,0,-0.2908999173284078,-0.005557463325899,-0.0082194904332956,-0.0357438560983672,0.0218157616713387,-0.1528768334938647,-0.1626947446003794
163,-1.351926783017806,0.4126919316562048,8.410305803435493,-0.0691310029966014,0.0614120710351315,0.1088188508273408,-0.7173286600210114,-0.0549813667295274,0.3846654992932412,52.3476412340388,4.921799501408507,-0.3380852024806837,4.4405971942326765,70.89162481168044,3.790091991424561,2.5,1,0,0,0,0,0,-0.2901865998688629,-0.011978806186069,0.0033133793564152,-0.0983734905282712,0.1288580002727808,-0.1230376119746669,-0.0561180220537678
164,-0.9593965090875752,0.1640085486496901,9.356213401081176,-0.039854255498882,-0.0509518942392385,0.0566998309862231,-0.1687521203890905,-0.2998838439771237,-0.2240180697240078,52.34764860415196,4.921830437633936,-0.286145783316784,4.454460225982052,70.81664291414727,3.790091991424561,2.5,0,0,0,1,0,0,-0.2921363323770137,-0.0066997644428471,0.0043434311951561,-0.0423095876005918,0.1380823751555726,-0.122106708039917,-0.1138255727879432
165,-0.370176788175925,0.3561367200884539,9.717581624383476,-0.0092899797922021,0.1695003924377993,-0.0570065132490673,-0.5656262831408294,0.0101073338739329,-0.4269486302699785,52.3476561448649,4.921862366173238,-0.2645671433008689,4.612032618301389,70.18923615340529,3.790091991424561,2.5,0,0,0,1,0,0,-0.3033828796566041,-0.0021562956274561,-0.0220383045288347,0.0414407352839771,-0.0183145027508604,-0.1024131968199887,-0.0558053390065248
166,-0.3233249012493919,0.460306780828624,8.8873608050089,-0.1742029049357693,-0.0180554607655434,0.0769954568921333,-0.3990649062214534,-0.1923549863600156,-0.5849134692885707,52.34766625389013,4.921894625586266,-0.2510902802249104,4.8106359160388354,69.46150089305722,3.790091991424561,2.5,0,0,0,1,0,0,-0.3050546586113988,0.0017287474167617,-0.0621376179199125,-0.0616747517008475,0.1121785367533753,-0.1478752353424359,-0.124609790844971
167,-0.4779813902977254,-0.0318457802347331,9.520499065737164,0.2143606964938857,0.1093752725057038,-0.0529411173219242,-0.5881270855563595,-0.1680405333001926,-0.5553325686281108,52.347677241351214,4.921929855904624,-0.3230212544201157,5.006664835947434,68.01991203462504,3.790091991424561,2.5,0,0,0,1,0,0,-0.3228607606493994,-0.0040089255616265,-0.0345126533174914,0.1181150571346173,0.0720206314602247,-0.101212991095017,-0.0401340288539347
168,0.2254512417552532,-0.3431314031251721,9.094474564594696,0.0031842941618802,-0.0374422974185086,0.0152887357301652,0.7952992259445176,0.2443905315210763,-0.7790010272161004,52.34769103922464,4.921966076831447,-0.4177432966492604,5.2019587311515965,66.44868308215965,3.790091991424561,2.5,0,0,0,1,0,0,-0.327811446229945,-0.0032775666209219,-0.068907175880679,0.1218341805862026,0.0892300561589034,-0.129984244909274,-0.1859382889531095
169,-1.2108427948113043,0.8608710592594009,8.937534319771029,-0.221352016555021,-0.1803000130377656,0.0583195802091438,-0.1971608285297451,-1.2852005219951488,-0.2435691721787074,52.34770077841437,4.922002945905569,-0.4630198429700849,5.339883717117028,67.2272218273457,3.790091991424561,2.5,0,0,0,1,0,0,-0.3299428172194614,0.0087500622873341,-0.1855529060597679,-0.1244896301778369,0.2410912073225703,-0.1573799829793117,-0.163120247309125
170,-1.1669591230788676,-0.1343927079671645,9.340843309327774,0.1286695909473066,0.0182879030717391,-0.0507390163630571,-0.370385896196442,-0.2805046194764138,-0.7100298280485975,52.34770912941883,4.922040348937913,-0.4951018756319483,5.461429332497199,68.43251927303687,3.790091991424561,2.5,0,0,0,1,0,0,-0.3347710512418814,-0.0039049147321371,-0.091514868895589,0.1145507786822189,0.1711631613815095,-0.1359487591072604,-0.091378385425024
171,-0.0989259298780236,-1.070751712136566,10.37271142970224,0.2647957378539844,-0.0375899456647149,-0.1042792964453118,0.6740902242985934,-0.3042663475986915,0.7172304883301399,52.34771951558682,4.9220798370647385,-0.476474085757291,5.66046360046832,69.51072607625161,3.790091991424561,2.5,0,0,0,1,0,0,-0.3410284956587873,-0.0146322786623486,-0.1142991207638901,0.2618830876407805,0.1247280756356827,-0.0357345814319158,-0.0769960568038086
172,0.6312628574952359,-1.7941026640198814,11.011093058654984,0.5209762018304602,-0.1678700967686493,-0.0656234911426901,1.1301765867220976,0.5764623040744423,0.2460278717503942,52.347728087876256,4.922120020438305,-0.4443143965369942,5.881622418457548,70.56585134508434,3.790091991424561,2.5,1,0,0,0,0,0,-0.3390491832965917,-0.0261545483983169,-0.0419088020862667,0.4153103025263271,0.2112673213264482,-0.0496901684736394,-0.1273832614931606
173,0.8083077814596583,-1.6705250484358078,10.489493394980943,0.1832374652818291,-0.0447081907219492,-0.1054889608992907,0.7072425819614865,0.5975727737493943,0.0334684973754324,52.347736039767646,4.92216075347477,-0.4100653663607061,5.95191169186459,70.880230443217,3.790091991424561,2.5,1,0,0,0,0,0,-0.3418878215379369,-0.0166681043030693,-0.0993359627344998,0.3538141830412165,0.1138137703734298,-0.0634728233120199,-0.1139093580624277
174,1.7582057414125951,-1.4833963327214987,10.127718749575212,0.0628648335399319,-0.0348422873031927,0.0936969688463201,1.0015499677604387,0.6240029509432539,0.0241505924113483,52.34774628942761,4.9222016697889455,-0.375258795342187,5.979125035140313,71.06008535964989,3.790091991424561,2.5,1,0,0,0,0,0,-0.3385707908719461,-0.0162353534500499,-0.1243689539774862,0.2882490787798557,0.1048444102953674,-0.059335596296735,-0.1133246465988379
175,1.9625374513362068,-1.5727368506104522,10.047367251875968,0.0776491768170501,0.1367798551661806,-0.0798122972848052,0.18598078941207,-0.3198035795092265,0.1424278973918188,52.34775481502743,4.922242329372393,-0.3995723905889437,5.922591490002085,71.25642421795979,3.790091991424561,2.5,1,0,0,0,0,0,-0.3494234341961101,-0.0106234664074329,-0.1750203609649216,0.3063624435710174,-0.0323725813632444,0.0029325909615399,0.0048010444120413
176,2.2644283441075244,-1.7274459643791558,9.94180295416642,0.1372584218875424,0.1927135446114098,0.0032886233334497,-0.0022898486501412,-0.2222283560653374,-0.3216274318140514,52.34776526091198,4.922282903352434,-0.4396622080927042,5.8421465716822825,71.45576304692275,3.790091991424561,2.5,1,0,0,0,0,0,-0.3470036943608279,-0.0146640524160123,-0.140826072574639,0.3165260781925211,-0.0359050002726562,0.0057224659332889,0.0400720454086578
177,1.1143693280160103,-1.213946600385675,9.74450006975466,-0.0358117483016696,0.0770142313444841,0.0089918447556658,-0.6586189022981129,-0.5962337411463168,-0.9452865982542354,52.34777385362619,4.922324402315807,-0.6454124902346694,5.829895475253438,71.12368880525034,3.790091991424561,2.5,1,0,0,0,0,0,-0.3455158718646685,-0.0124672280648582,-0.1540867778244439,0.1876791432005687,0.0850424976891919,-0.0580628717268242,-0.0031162263083895
178,-0.0993731722005575,-0.5294540480561333,9.261042450422632,-0.0549061087284285,-0.1524362858431391,0.0699469251541635,0.0248127053133423,-0.8746215449897363,-0.9550031239566492,52.347781812503435,4.9223662097024485,-0.8953693057167832,5.83711511085549,70.69510835906584,3.790091991424561,2.5,1,0,0,0,0,0,-0.3417030958074544,-0.0151003394082326,-0.1728274979640406,0.0778757882873231,0.2468026804235176,-0.1203923699703332,-0.1342531528727803
179,0.7469595774580733,0.567470643125806,9.675961007536149,-0.1381830607607067,-0.156786433961257,0.020294842572102,0.5509240257014132,-1.725082693470413,-0.1924861159336872,52.34778955459043,4.922407802086468,-0.9886470309192906,5.785589884619082,71.23106077412567,3.790091991424561,2.5,1,0,0,0,0,0,-0.3429024624142018,-0.0093928988326232,-0.2831723518119361,0.0010143022687285,0.1295010202433804,-0.0752179958954614,-0.1593788660824525
180,-0.1243898692947315,0.6349604523030603,9.956988751582257,-0.0565145724576626,0.0050951970321508,-0.0047961341587766,-0.1884268768152169,-0.7295592825420254,-1.0586450244192154,52.347797222528975,4.922449322780753,-1.0401148815743302,5.717292432039565,71.94218657697856,3.790091991424561,2.5,1,0,0,0,0,0,-0.336701976464233,-0.0142564766919352,-0.1963203447839986,0.0564936210324092,0.1214883783160219,-0.1250662356023646,-0.130774203089964
181,0.1100777838761117,-0.8389601562830706,11.174795183708286,0.1905280136103508,-0.0200435008945696,-0.0097603279976217,0.1229955609179294,-0.5065047869953354,-0.4695134411237351,52.34780486510667,4.9224892303599885,-1.1022622229896235,5.665640594327158,71.49846408085553,3.790091991424561,2.5,1,0,0,0,0,0,-0.3396023452577567,-0.0318717024475727,-0.1085342944534883,0.2237301376614143,0.1545343345972713,-0.0443724420867979,-0.0644089064422781
182,0.0906120066030425,-0.1544093110774923,9.989690703226689,-0.0464011385441191,0.1055359991949401,-0.0050214724026766,-0.2394953954816517,-0.8123734147490778,-0.0723994933239546,52.347815008972546,4.922528282225468,-1.1672594749763818,5.6187413372230735,70.8450103513945,3.790091991424561,2.5,1,0,0,0,0,0,-0.3420402438839789,-0.0258940003245278,-0.1811094945575742,0.0993108028088867,0.0646860592989409,-0.0458885549643554,-0.0384917109732072
183,0.6468066270378781,0.0977375768560348,10.594596287849653,-0.0623746280358238,-0.0017699881763552,-0.0007406629550665,0.5600326470225969,-1.365412758782522,0.5180448614186022,52.34782349838778,4.9225670487646935,-1.2119867528617043,5.598206205524229,70.76725528055904,3.790091991424561,2.5,1,0,0,0,0,0,-0.3428038502878075,-0.0251145371491749,-0.2316059501424348,0.0786581713930692,0.0502065308504111,-0.0084847457381701,-0.0819919576276878
184,0.4146663491200894,0.4291519836951703,9.173701451974289,-0.1411995556807141,0.0057190678464626,-0.012050208076574,0.4364491164830753,-1.0528295383796649,-0.0287106794804946,52.34783393189617,4.922605720165713,-1.2513050735371922,5.585198098877684,70.79405557370491,3.790091991424561,2.5,1,0,0,0,0,0,-0.3398570357436398,-0.0226433709778717,-0.2344173255701002,0.0279453044317206,0.0500557362615033,-0.0684358788571844,-0.1355658435652607
185,0.8628384981837915,0.2193589892955084,9.467909197539363,-0.0628445033699928,-0.0715459000905606,0.0250289296925865,0.3524178759754307,-1.2205992663242493,0.3033464397091439,52.34784252037738,4.922644042001959,-1.1979383079763068,5.556477233740493,70.10329043865526,3.790091991424561,2.5,1,0,0,0,0,0,-0.3399629796315461,-0.0259882211528689,-0.2210328486689122,0.0343736105094368,0.0896528262834738,-0.041986697718821,-0.1138568096215032
186,0.5328424462063768,-0.0707358750374246,9.399785999380702,-0.0637289912606606,-0.1486986211325195,0.0384107464902667,0.4835789317331266,-1.7648159450336551,0.3284532538897996,52.347852987769144,4.922681929438316,-1.1198385179206405,5.523270132924889,69.28221108650038,3.790091991424561,2.5,1,0,0,0,0,0,-0.3428533452538199,-0.021340008662951,-0.2260683920633694,0.013351532938982,0.144268071496449,-0.0341203502089637,-0.1116988430566535
187,0.3331507430697962,0.0204354579162531,8.737174196222181,0.1048540243826507,0.0854146445264514,0.0902826282974161,-0.5416011986921718,-1.099948052258219,-0.0176763491853471,52.34786158783944,4.922719989872082,-1.0506434346615745,5.460202447903379,68.02827212282854,3.790091991424561,2.5,1,0,0,0,0,0,-0.3439900553339013,-0.0243300048792063,-0.1606166718968378,0.0438797567055036,0.1030003265067347,-0.0467736981378759,-0.0034630403376123
188,0.4903970869720002,-0.2384188398308181,9.407216251949515,-0.0169375206013616,-0.0618614395035042,-0.0308522597814919,0.0742465715138579,-1.5988906788067152,-0.0022713397494764,52.347872059195005,4.922758107989507,-0.983824573298203,5.3886094447399735,66.69571947201867,3.790091991424561,2.5,1,0,0,0,0,0,-0.3476207975680593,-0.0156501565739672,-0.188834960533153,0.0507405647159598,0.0932998460407558,-0.0337432087158087,-0.0760400123297019
189,-0.4409221435349258,-0.4279174118900945,9.243547109670928,-0.0627037250805412,-0.1037697191825705,0.0874772027986539,-0.7536528188958267,-1.354459491379074,-1.0027650583995558,52.347883170583366,4.922794338287488,-0.9787661631487272,5.271712959924237,65.83991932200767,3.790091991424561,2.5,1,0,0,0,0,0,-0.3415052569148995,-0.0163224306956345,-0.1114350834462407,-0.0093730787533478,0.2317074116281344,-0.0948135349987985,-0.0627790698326554
190,0.7704702440729152,0.0906163609838716,8.818806179297338,-0.2046581771941827,0.163287237630144,0.0425336623598954,0.1515943831730127,-1.1158847664065294,-1.0214878244074412,52.34789199091878,4.9228302569596565,-0.9901885355577996,5.141881970791978,65.07070445494493,3.790091991424561,2.5,1,0,0,0,0,0,-0.3450416843840365,-0.0080776365796244,-0.1704358437684883,0.0129211623568124,-0.0472633425679245,-0.0636343570721508,-0.0776567457921399
191,1.414125757438293,-0.0616887947926831,9.139664571683822,-0.0337677336025035,0.1143631951246784,0.0885703737541419,0.4072856602527443,-1.0654034961401455,-0.2601980162352628,52.34790504757361,4.9228632111444535,-1.070154248740108,5.136965072680923,62.06665529528686,3.790091991424561,2.5,1,0,0,0,0,0,-0.3522872297078069,-0.0174262247237967,-0.1542508484401455,0.0527772709783452,-0.0328969496420727,-0.0162958624424032,-0.0582128342610557
192,0.4122748189539371,-0.1690710702120045,8.492754130805732,-0.1177229489640368,0.0298976149237483,0.3053652485914323,1.143756702590731,-2.237117158551005,2.002814674069627,52.34791704320784,4.922895176860765,-1.1684108466338148,5.167712739705639,58.65672727973893,3.790091991424561,2.5,1,0,0,0,0,0,-0.363470641140727,-0.0211536923368809,-0.2280378135613213,-0.0956622368282233,0.0848648357453278,0.0589890467299817,-0.0022532556337242
193,-0.0828447677680666,-0.249178759201226,8.994249429201048,-0.1381173747865196,-0.0674116803176897,0.0651105432475032,-0.8140829521982758,-4.161714119187163,,52.347928675942825,4.922925859458898,-1.0627544927664947,5.1157604623922905,56.72801891694753,3.790091991424561,2.5,1,0,0,0,0,0,-0.3768357379716194,-0.0225605215773089,-0.3249554521042551,-0.2093873361626091,0.1203016145794956,0.2038617483871569,0.2092630675155101
194,-0.2177183292697279,-0.6641721692735028,10.231442652143352,-0.008828811310944,-0.2481635548248909,0.1185213431549438,-0.1046342086366714,-3.482975011591675,4.023726398183365,52.34794269451829,4.922955796376299,-0.9026840348077184,5.040196412016329,55.068318758953716,3.790091991424561,2.5,1,0,0,0,0,0,-0.3712616008091781,-0.0199580903782478,-0.2237481747161009,-0.1239300894539539,0.2371889812551541,0.1488076615135519,0.1009164250052787
195,0.4541054222568808,-1.5188148810160451,9.953719923363924,0.2346070189197745,-0.0350256908669893,0.0523645642988166,-0.0255322203353798,-1.7602585261433434,2.0934799408267666,52.347955019156714,4.9229851668142635,-0.8050372576982651,4.911448959270452,53.293796781201095,3.790091991424561,2.5,1,0,0,0,0,0,-0.3714482820634509,-0.0229173215205539,-0.0747833129669627,0.1021337124082195,0.116462238448569,0.1022501410996213,0.085462390223996
196,-0.1941763680349131,-1.4508145323787598,10.00067284006866,0.123852031132397,-0.0077028261487562,-0.0031489331653894,-0.0822049370340136,-1.522554514304215,1.8559151631966284,52.34796927438282,4.923014348367271,-0.7240482023425003,4.767516822221483,51.49842459004429,3.790091991424561,2.5,1,0,0,0,0,0,-0.3706713300420433,-0.0158480306315297,-0.0531462468609029,0.082916569559898,0.1004600635941302,0.0740847478485411,0.0593982853543041
197,-0.1840842704351076,-0.7920639363060453,9.791522394964453,-0.0125283904054897,-0.0196750417911859,0.1892571048913564,-1.2213677420993805,-1.2679373503433,0.7624057337188141,52.34798418992482,4.9230421955702734,-0.7561963007915127,4.737139142484215,50.02661792236714,3.790091991424561,2.5,1,0,0,0,0,0,-0.3661582500679145,-0.0135433505045963,-0.0251454435759577,-0.0478299461178043,0.1955050492984904,0.0043204895905492,0.0732089295412707
198,0.110989320411353,-1.3279412662024752,10.665791717330949,0.0428495129666697,-0.1395504788732069,0.0776848133234175,-0.1190273287007113,-0.7631961076386883,0.388328295794105,52.347999331313616,4.923069280009977,-0.8185351037023583,4.739183017379605,48.61357864600027,3.790091991424561,2.5,1,0,0,0,0,0,-0.3690653271380021,-0.0159782538909258,0.0104244931642905,0.0762385951894651,0.1853003196597984,-0.0016929851734709,-0.0420259835818347
199,0.3280894025505023,-0.6376296799823293,10.230061409422255,-0.1472757693275865,0.0025856933496926,0.0192236210159808,-0.9239335862600716,-0.3645133133145675,-0.152526910978395,52.34801203998611,4.923095156589864,-0.842751714257252,4.718332230276934,46.96569744161233,3.790091991424561,2.5,1,0,0,0,0,0,-0.3720633166886329,-0.0086903319009999,-0.0105311801862738,0.0216197581789154,0.0856479812579501,-0.0400054766800474,-0.0360979404018234
200,0.2193856043409917,-0.6253847450062642,10.278723143682694,-0.0351558608908872,-0.2292661036993084,0.1161989651455183,-1.0755552794598282,-0.2767376391411127,0.255905680215121,52.34802642656282,4.923120312582908,-0.8567954139845083,4.69094432222346,45.275162358908965,3.790091991424561,2.5,1,0,0,0,0,0,-0.3679686698860062,-0.0173229313441791,0.0323624476651693,-0.0224325144596541,0.2585590723463637,-0.0562440231074332,-0.0691251017504979
201,0.2671339494392717,-0.9577509596006272,9.99561782931416,0.1244411775665338,0.0322693896240879,0.0160206726532994,-0.8003371170752566,0.0306444650035551,0.1846750244879596,52.34804389699277,4.923143956937095,-0.982029206079592,4.733138690204426,44.190669645739106,3.790091991424561,2.5,1,0,0,0,0,0,-0.3807167967174585,-0.0203965337830353,0.0397768906185058,0.1095364607973151,0.1004675181587336,-0.0191869023137355,-0.0122748954360368
202,-0.0376658055178706,-0.2076140027839882,9.76915063131031,-0.1558371283694055,-0.0946420926574461,0.0453642309199175,-1.9390069247810184,0.4047775704949148,-0.9393019304592456,52.34805991222591,4.923167415097828,-1.1369340853989676,4.795199874665547,43.216243161811406,3.790091991424561,2.5,1,0,0,0,0,0,-0.3766114953230045,-0.0178338744365288,0.0402266832396398,-0.0288871190886619,0.2103952076288704,-0.1220322137897857,-0.08422446103431
203,0.4811401552556949,-0.5663185172063583,9.949055389318804,-0.065283617655495,0.0867702283620483,0.0351321665268847,-1.331382681329566,0.0112485969527522,0.5741020898588935,52.34807793970269,4.923188904121568,-1.243307110430127,4.720036232896764,42.71192071664618,3.790091991424561,2.5,1,0,0,0,0,0,-0.3846653205029079,-0.0260913827368761,0.0057983807302027,0.0305053395931117,0.0629866771802993,-0.0062382546424678,0.0150860234481676
204,-0.6869457168578947,0.0306758315269231,8.956923050907939,-0.2219094907093093,-0.1359593631333139,0.0121419195185326,-1.9066008322602728,0.349585494896652,0.1163938117420195,52.34809414546167,4.923209736563038,-1.3367294053100909,4.605692779908791,42.29297297381258,3.790091991424561,2.5,1,0,0,0,0,0,-0.3726839511068954,-0.026653235051143,0.0344901946626839,-0.1080181796471578,0.2263808903292439,-0.1141346405470317,-0.1023296651109655
205,-0.5538302213836347,-0.0209744578632569,8.392410547780335,-0.0702358965964689,0.0075501709889574,0.0320499976311771,-1.6274277929366303,0.7614895561963261,-0.4657253713592858,52.34810972814138,4.923231303602612,-1.3229033486700574,4.594480640505842,41.60309694444595,3.790091991424561,2.5,1,0,0,0,0,0,-0.3759744296125293,-0.0261546880883059,0.0643999948399497,-0.0382961750153224,0.1594158427576432,-0.1242020688713417,-0.0925146700080853
206,-0.1652221349813835,-0.1207215158710155,8.950411476370244,-0.2135867962918724,-0.1154342420787382,-0.0198809142435259,-1.1244953804342357,0.7659719684748503,0.7085901806141721,52.34812760767257,4.9232531155840515,-1.2804581461419018,4.612713746227653,40.864016343925854,3.790091991424561,2.5,1,0,0,0,0,0,-0.3757440281965729,-0.0274159438933932,0.0293038780192073,-0.0516101797737502,0.1534925628611613,-0.0908624190910425,-0.137309959103366
207,-0.2481051781015137,-0.2406219908460913,9.170229221736069,-0.1020680634024186,-0.0686709316946526,0.074648251237327,-1.936776397837424,0.956758134361656,-0.0110629762062676,52.348143762829984,4.9232743735536415,-1.4001961086072003,4.560760872419296,42.16196261014164,3.790091991424561,2.5,1,0,0,0,0,0,-0.3701932647836942,-0.0367097585015258,0.0908654923419819,-0.04420507389397,0.2097484319034016,-0.1030946195187839,-0.0745428539883918
208,0.8436957776764618,-0.8397465958308378,9.402824975055518,-0.0589999242606584,-0.0223581805802826,0.1171346187673259,-0.7421184710945432,0.8305789223483536,0.9721164490745078,52.3481593282025,4.92329544679542,-1.5632126648064932,4.488768815441424,43.82986298741928,3.790091991424561,2.5,1,0,0,0,0,0,-0.368577541142736,-0.0498013350500208,0.0733218068289707,0.027324248181919,0.1055157352672738,-0.0116978813669239,-0.0600070444635182
209,1.322709369009865,-0.8788814478901639,9.965775794464475,0.0895678947507279,-0.1050984632347168,0.0239459969285709,0.2276098855319157,0.5192720959315575,0.7616646357215086,52.34817469185182,4.923316776284406,-1.5747141676714858,4.618255747062136,40.94107765710312,3.790091991424561,2.5,1,0,0,0,0,0,-0.3837904530873025,-0.0434816039185298,0.043576992016457,0.1159634176421499,0.0769659598092292,0.0043364502943117,-0.1282871535334521
210,0.5506627632464428,-0.6979247423130603,9.53339765969312,-0.0203684302565806,-0.0680565915732758,0.1101088887285496,-1.3288517119184275,0.4398054526831451,1.2020252439636423,52.3481924964684,4.923338191215582,-1.545783950859687,4.8052680474867495,37.2247279007859,3.790091991424561,2.5,1,0,0,0,0,0,-0.3961196553193396,-0.0414114549753605,0.0322418116248567,0.0096739055782201,0.180747356653145,-0.0106859501808538,-0.0235333818475034
211,-0.0923750015704624,-1.2064396335518373,10.2775177299106,-0.0223083356889267,-0.2056409592855454,0.2431694479219491,-1.3308366424512488,0.4676993727911377,0.991083137277745,52.348208626002865,4.923358363267451,-1.538999780390599,4.8836698023789085,33.97186918653864,3.790091991424561,2.5,1,0,0,0,0,0,-0.4024581736595234,-0.0424614480507699,0.0780467770923456,0.0002733033176555,0.3457088305708361,-0.0264715338505645,-0.0304715098301304
212,1.4269457876939668,-1.174909777512303,10.885164266119853,0.117240554100118,-0.001012299814348,0.0457270302794634,0.146391477721054,0.8470173848765004,0.9976923111910732,52.34822669257394,4.923378120897914,-1.5381252845940896,4.931061565950358,30.80318883976565,3.790091991424561,2.5,1,0,0,0,0,0,-0.4207804817801968,-0.0354623914052788,0.037559570137247,0.1941929881357622,0.0567286201186066,0.033108267459775,-0.0738983609181655
213,1.3101516132817117,-0.8184100790753069,10.500874890650849,0.0504839834503979,-0.0103134703980302,-0.0671235237592476,0.2908275770381181,0.337212749491433,1.0650948088045888,52.34824542166663,4.923394879765199,-1.5175723498817912,4.876716767635315,28.590939258836627,3.790091991424561,2.5,1,0,0,0,0,0,-0.4288084193930913,-0.024939637884456,-0.0117872805221834,0.1578720369939426,0.0033389418630364,0.0328272874979537,-0.1035435813092649
214,0.8584138788619415,-0.8807092973127367,10.710511694489046,0.0831360036070124,-0.1919522640494726,0.0711360274411137,-0.0214447592789464,0.3427473782059075,1.3959082886984908,52.348264377360536,4.9234109565774045,-1.4917681343863147,4.793324606694181,26.552391605726054,3.790091991424561,2.5,1,0,0,0,0,0,-0.4243936594476255,-0.0305107383364751,0.0371752838926486,0.0872494838372562,0.1773522291202797,0.017658346315944,-0.1074432374397381
215,0.0387547403085616,-1.5931998061813737,7.990906887073246,0.1333733789598634,-0.052630534761875,-0.0235941103820366,-0.8203321297496655,-1.2202956559427849,2.7456488599213955,52.34828592052085,4.923428077336365,-1.5174051865977072,5.066025905683592,26.22307993590477,3.790091991424561,2.5,1,0,0,0,0,0,-0.4487697399126887,-0.027772396468377,-0.0725318299205739,0.0467160718888189,0.1593694727410047,0.0916758185404885,0.064381667308573
216,-0.2114665830468899,-2.391740009438988,9.295292995635638,0.5829696582043228,-0.0235834740886825,-0.014485258823068,-0.9313176130507714,0.7737534262254497,0.4787994064753196,52.34830834866822,4.923445228343131,-1.5567693462208774,5.44039739744915,26.20419228100819,3.790091991424561,2.5,1,0,0,0,0,0,-0.452780741431639,-0.0395178782016564,0.0957602799419111,0.3294472253108633,0.2681512696298953,0.0012755892551559,0.018878974602254
217,0.7262297873471982,-1.2202890870160037,9.350387270545696,0.1937916048425693,-0.0782341479082366,-0.0489373978527481,0.905059391168752,0.5075995865529543,0.5345245664340796,52.34832856954402,4.923466203542191,-1.435998402501105,5.475837525919764,28.369482623049112,3.790091991424561,2.5,1,0,0,0,0,0,-0.4458927013740439,-0.0188751343269052,-0.0470351537700184,0.2373128456317026,0.1122222799397976,-0.0227858104130457,-0.1640317806223839
218,0.1362542564465882,-1.1463513793656372,8.790466742333066,0.1017632039549105,-0.0634978390779943,-0.0456483011761768,0.116815911346052,0.7649039456517086,0.516997833894574,52.34834803547018,4.92348813602458,-1.2724953905027905,5.414507846451943,30.931451890858288,3.790091991424561,2.5,1,0,0,0,0,0,-0.4332955250087127,-0.0173620955591842,-0.0247549303065271,0.1796610650934017,0.1530580054391832,-0.0592609189699952,-0.1399825361013346
219,1.1727148785989194,-1.1963104721946158,9.205093774054705,-0.0065514581709215,0.1275168517303332,-0.0032670153120097,-0.1200142685340125,0.3559261131833736,0.5177476567405133,52.34836975314441,4.923509116331376,-1.1839727317741433,5.50059751672063,29.841811605279016,3.790091991424561,2.5,1,0,0,0,0,0,-0.4449417848557327,-0.008956898537315,-0.0798474409010403,0.1866895326428319,0.0167880714578436,-0.0024471808543092,-0.0411860960157129
220,-0.0354418094260255,-1.4956585956300137,9.96815653940664,0.0828351834586237,-0.0197296061310408,0.0784453170466115,-0.3106636060822154,0.5093644547108755,-0.3172449045023836,52.34839224098052,4.923529779148012,-1.1154585877844974,5.628777692413281,28.088985188810113,3.790091991424561,2.5,1,0,0,0,0,0,-0.4479218158058377,-0.0063301524966366,-0.0169016846149189,0.1985594883639701,0.2155970740049338,-0.0602818533099033,-0.0710056404632666
221,1.755822567296346,-0.0258740601235636,9.09268746896594,-0.1490112354185669,0.1995084741462549,-0.1715873468095375,1.7360609493092376,-0.8349330448437238,0.8880564349923287,52.3484149922339,4.923550018259609,-1.115937981925219,5.711816651066921,27.97524238373693,3.790091991424561,2.5,1,0,0,0,0,0,-0.4663632654817397,0.0194075593261789,-0.2795887636953422,0.166921442340091,-0.2101383651960073,0.0282766240719207,-0.1456946784720185
222,1.1347034212027358,-0.3975060764105516,9.568946541288028,-0.0183209345154224,-0.0345187310089848,-0.053102391212979,1.4021489996717782,-0.1759623732347257,0.2012732925859423,52.34843783358346,4.923570116092449,-1.1348283085886577,5.781967093769156,28.159181327644124,3.790091991424561,2.5,1,0,0,0,0,0,-0.4573732252612284,0.0089038226775025,-0.1793365300465385,0.1796055779125985,0.0281541278165808,-0.038258462280785,-0.1998977843801454
223,0.2946546682219649,-0.7217496879320626,10.56340551595962,0.0799386412225533,-0.0604178220888642,0.0009110625416899,0.2701972530935373,-0.3544273540964929,-0.2095717198963676,52.34845819578615,4.923592709555502,-1.1797309372947242,5.759127099909773,30.484065446665703,3.790091991424561,2.5,1,0,0,0,0,0,-0.4504293900460418,0.0012176920294101,-0.1167406674665595,0.1775653651575468,0.1587906864301705,-0.0419659226922465,-0.1131313239849951
224,1.000098094571315,-1.4590636524023193,10.601804086953525,0.0823826445910109,0.0137832353570806,0.0220794838080996,0.1632549825846512,0.0302111342112434,-0.3346954799432893,52.34847771005012,4.923616135152919,-1.2315749513920202,5.7097368975365885,33.19777677362725,3.790091991424561,2.5,1,0,0,0,0,0,-0.4432676661540126,-0.0095681512691289,-0.077291701210213,0.2458561596231878,0.1101998450588287,-0.0130621740479054,-0.0688508234780087
225,0.7747347016721358,-1.087144887783274,10.129046933896024,0.1314071971532681,-0.0648868200947132,-0.0314643628801236,0.6815333313818422,-0.6500429524118689,0.5556747457483646,52.34849944425726,4.923636977634433,-1.167316984689705,5.577745310887678,31.80834129255997,3.790091991424561,2.5,1,0,0,0,0,0,-0.4450920165212186,-0.0044227526225498,-0.1194546275573223,0.1944649441789721,0.104275855647545,0.011054518157794,-0.0948701353395329
226,0.3389624154654619,-1.0568654944683415,9.777300299690149,0.1774860421548753,-0.0649165653332937,0.0521312680723364,0.5187237182319211,0.2691201983354237,0.1960403367822318,52.34851942778578,4.923656958810653,-1.0720771928457895,5.4221697509062405,29.67371385810771,3.790091991424561,2.5,1,0,0,0,0,0,-0.438099488407382,-0.0066726589932528,-0.0330425377963127,0.1883464587984223,0.1627196306945366,-0.0406317581901216,-0.1204194283280136
227,0.0968400290109354,-0.9674851135940752,9.83537071252512,0.2168980114086304,0.0546789037242723,0.02003062108172,-0.6103471819907897,0.3016658110531786,0.2593681410392554,52.3485388125324,4.923677288480623,-1.0672177334848585,5.1776947038921595,31.986704768452245,3.790091991424561,2.5,1,0,0,0,0,0,-0.4265925212686322,-0.0124488968656331,0.0104327117856404,0.1677274378564272,0.1301615837701955,-0.0269115009338755,-0.023093861440475
228,0.5095942564227371,-0.6860582159677489,9.247410010082454,0.0823739652893273,-0.0792879537461369,-0.0275972640081336,0.6130959324231846,-0.1473682921750861,0.6098767935231668,52.3485579924786,4.923697734351152,-1.0864762748500336,4.907837818448344,35.107448741832364,3.790091991424561,2.5,1,0,0,0,0,0,-0.410649154240492,-0.0107272320797655,-0.0335279672028424,0.1044565972011774,0.0781757174256057,-0.0225992517983166,-0.1398268783702368
229,-0.7375897479052765,-0.6797927590754365,9.843059482064472,0.1188993832102459,-0.1483752739167913,-0.0094076408145614,-0.3063512686507285,-0.3130517180797886,-0.0243665803689882,52.34857710237723,4.9237159940716975,-1.0270857733925056,4.766485785640253,34.32388493413085,3.790091991424561,2.5,1,0,0,0,0,0,-0.4063183619749569,-0.0080237805490037,0.0296287431697634,0.0588860419656162,0.2131792009078708,-0.0623100866581292,-0.1127055001031529
230,-0.2692092719125962,-0.4824347469893252,8.938830261270471,0.019852193964242,0.2127053295246476,0.0009575847608194,-0.5933062457003926,-0.2735192758847062,-0.1704504253919493,52.34859367835527,4.923733207007687,-0.9467077670233014,4.661823876662836,32.8312443937309,3.790091991424561,2.5,1,0,0,0,0,0,-0.4142323464507308,0.0013076696016217,-0.0001111955042244,0.0541685105570196,-0.0045876492172282,-0.032417980134873,-0.00855313901783
231,0.925974480010784,-0.7059127409608502,9.595908783528753,0.1278037761290809,0.2950509623801486,-0.0424673611010308,-0.1427841081200784,-0.7029217477091154,-0.3444506660069811,52.348611897622746,4.923750706591858,-0.9392396847761812,4.617651605272424,32.56015886546617,3.829427346939111,2.5,1,0,0,0,0,0,-0.4194366969697598,0.007274441171661,-0.0204455896576571,0.1393504295445015,-0.1304853445922396,0.0347150180678093,0.0237214069474107
232,0.9927351652025024,-0.1487632824069931,8.605634556221295,-0.0809962794054721,0.3107646860443609,-0.0003263107178593,0.9836968287825542,-0.4033310889096334,-1.0729028813846615,52.34862816897961,4.9237683017550165,-0.9512276667429276,4.590750061391665,32.51092573689599,3.880842624564021,2.5,1,0,0,0,0,0,-0.4133033326966901,0.0224796843601568,-0.0596828159993623,0.0839058043394255,-0.1933129894202441,-0.0208764808540478,-0.1109256264371113
233,1.2276954210393043,-0.6297384943889088,9.215802727475609,0.0748144122655072,,-0.0464010735458965,1.3161861783034905,-0.712259231484165,-1.0501166954454924,52.348648794020306,4.923790378578701,-0.9596286938749468,4.815276929926465,32.82933650452973,4.264753661822094,2.5,1,0,0,0,0,0,-0.407966611876401,0.058679132363098,-0.0845522243815184,0.1984143901513604,-0.2324009774052348,0.0716644323158637,-0.0830985943361245
234,0.1473931323119262,-0.2014772910708673,8.395902367967732,-0.0681188857583086,0.1735827801883789,-0.0111278999226113,0.7679366965445461,-0.9953361470972948,-0.8327382509930885,52.34867090814468,4.92381426759409,-0.9670725854511524,5.11159015995807,33.21451994581173,4.7507728762905215,2.5,1,0,0,0,0,0,-0.3852478640142602,0.1070598155794209,-0.1351226944007,0.0630357491547998,-0.0125210767418153,0.056998288221222,-0.1717364728183126
235,0.4726053021605083,-0.9342137346003524,9.59019320394415,-0.013250897367167,0.0552768204072023,-0.0887393057641108,1.4149481688963992,-0.9891291901048904,-0.3080993029938754,52.348691021615686,4.923833039700602,-1.1693243659901351,5.060440071153664,32.834363670616995,5.481208275049221,2.5,1,0,0,0,0,0,-0.3517161649147961,0.1622389350897506,-0.1124647444191777,0.1523618058170054,0.0238843333807339,0.1920316063372213,-0.2496370663965769
236,0.019635503982347,-1.0678889677178127,9.358638412201037,-0.0967445315887128,0.0630821213176247,0.0049694255595688,0.9330696756634592,-0.6872233559785597,-0.4854625654147153,52.348710450806344,4.923850423484809,-1.4235606511041603,4.9100838283929695,32.315210419440696,,2.5,1,0,0,0,0,0,-0.3074210221570752,0.2252029437577606,-0.0649373498792134,0.0966469118890534,0.1127355668492848,0.2667872625353242,-0.2838985168194469
237,0.565616852918731,-0.9672217629965482,10.113085983292336,-0.0978680639002844,-0.0414540850957092,0.03640631186266,1.5592210016342352,-1.5008416274585548,0.4967528252874444,52.348717096142,4.923907074628367,-1.4088568288065118,5.274411097395277,49.36609316993722,,2.5928222451834912,1,0,0,0,0,0,-0.2421650308873539,0.2766133337188825,-0.1782005777208704,0.0972363074113682,0.1610678035979432,0.3879389070679147,-0.3185498977988572
238,0.1394754955718281,-0.809489827941677,9.665991879170754,-0.0507141731154963,0.0294525855928959,-0.0354360652329609,1.2316734481115008,-1.0312198589410686,-0.0014745720668201,52.34871685907343,4.9239771367875536,-1.3223863120562276,5.78568813220173,69.60795661678421,,2.7147090928636293,1,0,0,0,0,0,-0.1713801861292348,0.3260597194255338,-0.2271703391398256,0.1644415317731468,0.1942389822403265,0.3951402587238257,-0.3594946588801122
239,0.4108881082573329,-0.6890716653844627,9.53631404636644,0.0887259156849318,0.1288839201077367,0.0196369745393894,0.9140716508985942,-0.6338658471879371,-0.7579450818951944,52.34874187761256,4.923984605962529,-1.2684541105628335,5.16359490696808,49.96019762422425,,2.85310591882585,1,0,0,0,0,0,-0.2239204689823639,0.3022601772517133,-0.0977554160605211,0.1560647609753698,0.117824888463235,0.3435958446681866,-0.3038153190828754
240,0.525475266499068,-0.9555028851855498,10.445608431166995,-0.0164651805188133,0.0214133440632715,-0.0582769310630097,1.6609674398748973,-1.1403495809082005,0.1039745012626158,52.34877302432531,4.9239715221900795,-1.2232047617369677,4.217906765088846,23.067896661473288,,2.9966722325312887,1,0,0,0,0,0,-0.3047071141509455,0.2558977959971296,-0.0087528897000932,0.0930999451836238,0.011850897271887,0.332883881708121,-0.2933875197901777
241,0.7095719587746679,-0.8161934236537758,10.591801775576265,0.0448521986285988,-0.0274102460174057,0.0334265966613915,1.5208142917763905,-1.1582085490950431,0.0927632195055381,52.34879120727371,4.923971291530722,-2.0133557102881987,3.88359462152752,31.68721350925973,5.469940679329469,2.995953253067947,1,0,0,0,0,0,-0.3027829604388256,0.1600558368840907,0.0425511068018787,0.047430636701725,0.0285765675174118,0.2875423080180101,-0.2556466995070851
242,0.0028886423515052,-0.6760329706209718,9.992017191800867,-0.0634743133938654,-0.0661192501179296,-0.0620423447248318,1.275702354862517,-1.222471205205354,0.5274675184152826,52.34880495624608,4.92397502872703,-3.026433398809206,3.7238397855331873,46.755965263227,4.940748586340158,2.9500552509193767,1,0,0,0,0,0,-0.2905978986374948,0.0607871595908935,0.0323220515645043,-0.0115681671738696,0.023111295110902,0.2312539395053118,-0.2556709857805686
243,0.0747065374433108,-1.790308091398413,10.760245528826504,0.2246622950790448,-0.1264522004427537,0.054491273991719,1.5353795983867011,-0.6664967281512189,-0.2367625264103201,52.34882973848424,4.923977546213785,-3.009009378990857,4.228380209441819,39.83572733444811,4.504832381341084,2.878582701992464,1,0,0,0,0,0,-0.3455808508349013,0.0129395661432246,0.0936603767711258,0.1624333333317283,0.1491222397263701,0.1714227266742249,-0.2136318007659768
244,0.0635740665466072,-0.7394390222611655,9.941077865665974,-0.0631184048288905,-0.2372763823657865,0.0938914941138919,1.1111672988254595,-0.8506636877623187,-0.4723987879927026,52.34886080437534,4.923979974846992,-2.71659587565117,4.922587379285695,28.92196469371294,4.097560891450979,2.7991023417709155,1,0,0,0,0,0,-0.4102276671682337,0.0028561765157829,-0.0465566218937206,0.0310083941903214,0.2188603014519648,0.0359699929764512,-0.2576497545253363
245,-0.4553416976639802,-0.6071532494833909,10.080973829308787,-0.1351178816822082,-0.234023602032425,0.2061229490245584,0.7130387288614042,-1.239488148945555,-0.0320860276185048,52.348881469642755,4.923993498330673,-2.7217939848332486,4.910021618826918,28.86307016154915,3.9657222064372433,2.8153267715399317,1,0,0,0,0,0,-0.4149511718802961,-0.0085142761214632,-0.0578547519808087,-0.0526047013166246,0.2769589768325767,0.0338461202307917,-0.1929950998267214
246,-0.969183263894734,1.1433775970123,8.073335266235826,-0.3480965559213136,-0.293002313314656,0.0787222085058858,-0.0906601685198289,-2.5040046030657703,0.1143671488786629,52.348898577601155,4.924011039085396,-2.8064097824626346,4.695660909914674,30.77557971215776,3.9184681853341448,2.8615187219888765,1,0,0,0,0,0,-0.4069251105015213,0.0039151566605191,-0.1776309461499454,-0.3042662648797044,0.244962625352984,-0.0176690135527688,-0.2331077976382609
247,-0.3959563474071206,1.0035595689471026,8.74013498110499,-0.3450221586319401,-0.0649608096929447,-0.0480599452954955,0.0785561765916979,-2.6266304867900283,0.5498605943057149,52.34891697882105,4.924028012291895,-2.7926743080884036,4.5665813898198255,30.05901787228579,3.866736180569186,2.8543128611363584,1,0,0,0,0,0,-0.4167563592181285,0.0013261058667479,-0.1980935820264768,-0.2238822498456635,0.0366166872013475,0.0502941656683961,-0.1568551278036193
248,-0.3509798389590978,0.8561105976810042,8.963760379791456,-0.3793269295800961,-0.158333967303059,0.063532321932728,0.084431487511235,-2.9580270538437867,1.2870496809870633,52.34893331241079,4.924044796257059,-2.7526939617795354,4.461851309412531,28.864979468222515,3.8136291671096174,2.8303869252495235,1,0,0,0,0,0,-0.4179269950080123,-0.008712108245277,-0.1923397671389336,-0.2856455198942813,0.1056281544037451,0.0734623923306265,-0.1270876324262908
249,-0.3123975794042744,0.4206537707523833,9.41080881490517,-0.281728282111424,-0.1675778752179971,0.0428789146427038,0.0436185387238396,-2.908018595087912,1.3140470429430946,52.34895144877459,4.924061199280032,-2.7394041280044714,4.467673272844751,28.97547828080987,3.797320179828822,2.735980227621188,1,0,0,0,0,0,-0.4235301052094244,-0.0217007048283386,-0.1638326984808453,-0.2262792511746854,0.1184406350819681,0.0863094056590816,-0.1006631162154273
250,-0.5338647648064084,0.1030163596231099,9.038758459730552,-0.1754188608608383,-0.0585686184241993,0.0643226750569281,-0.376970294394462,-2.7617446024658245,0.9897752438860256,52.34897020173837,4.924077793125161,-2.7332368349543232,4.505059896098637,29.32290028484559,3.7923117440536185,2.6195042290098143,1,0,0,0,0,0,-0.4307953836301548,-0.0340828723598724,-0.1335294975394836,-0.184882954760224,0.1136777653695772,0.0806336860749775,-0.035346315642607
251,0.2472613139359039,-0.0421512007849458,8.874044000678907,-0.1187017051222336,0.1341353639977698,-0.0985495841246507,-0.7174524756760465,-2.6790014421548203,0.3254746882583855,52.34898916559687,4.924093814912945,-2.7346299303420163,4.508589687428635,29.181400928622555,3.790773670077445,2.5602263004584382,1,0,0,0,0,0,-0.4417567011081761,-0.0347373655330985,-0.1419521836277923,-0.087222291204808,-0.058557846676566,0.0972780794215562,0.0109762829267102
252,1.1321822256645628,-1.1145566350159963,9.314358352714605,0.1611028712973366,0.2436419535718236,0.0488273348161265,-0.7395177061182548,-2.0825790321358277,-0.7961420543266774,52.34900820158736,4.9241099637981085,-2.738040516137456,4.50245248867229,28.9511062451668,3.790301332672642,2.5188582310428296,1,0,0,0,0,0,-0.4452033969869744,-0.0489092862983,-0.033854181764718,0.0684138735244473,-0.0572497265343231,0.1170838699494447,0.087097814574258
253,1.7259206957651971,-0.7969018318497432,9.744083117673762,-0.0329671087803669,0.1512812981491769,-0.0665849523793994,-0.2830896334377407,-2.1864171809153192,-0.0801658888408315,52.34902475228672,4.924122976640044,-2.6027376171052534,4.4435415158446725,27.968138602135163,3.7901562794258976,2.5059049431121903,1,0,0,0,0,0,-0.4448839825517759,-0.0415596931616888,-0.0880642024564726,0.0358219133919591,-0.1259855394488441,0.1312313239695958,0.0187105958281019
254,0.8270253295897422,-1.4243888047171844,10.281285883767753,0.0415915054874249,-0.1152998635945292,0.1578057859697998,-0.5109239328547729,-2.6154831280213173,0.7128281430214347,52.34904296290817,4.9241349438104995,-2.4304190108291808,4.36956281393156,26.84847445292224,3.790111734056048,2.5018489726358215,1,0,0,0,0,0,-0.4380638037040032,-0.0479957270591753,-0.0249149849883499,-0.0427329169692611,0.1491212300251076,0.1414083730103792,0.0543108962931584
255,1.5695338324594972,-2.003593347156781,11.472796896864825,0.0062030684124289,0.1756607706473318,-0.0720977968174122,0.3465891044091893,-2.3419507162077258,2.923541412118503,52.34906174127017,4.92414910505356,-2.3374691621498997,4.580648084713051,27.66810850726244,3.790098054321057,2.500578955587389,1,0,0,0,0,0,-0.4519770304104171,-0.0497052995930032,-0.1041661127070208,0.1362532617599231,-0.1378883518752337,0.279078731824909,0.1431988755797346
256,1.0831279077373654,-2.5277500824709658,12.08003317298799,0.3823583559135378,0.0933218368036295,-0.0666269350007763,-0.2649058294398234,-2.0790893541598905,1.2224692354425322,52.3490807138156,4.924163680038438,-2.2656988743414543,4.873123530599267,28.8399477066084,3.7900938533199184,2.5001812842254534,1,0,0,0,0,0,-0.456453673668781,-0.0510987033555003,-0.0209614607586929,0.2719118128831754,0.0248007779004195,0.2215941825160274,0.1530252568064782
257,0.2553179629780254,-1.790276852107164,10.742538976250426,0.181556828923229,0.242702534025336,-0.1536319328875715,-0.6835070347198987,-2.388217892213526,1.085235858377568,52.34909975277726,4.924178075137756,-2.067394740353201,4.738712138008014,28.029789410593622,3.7900925632064353,2.500056764233931,1,0,0,0,0,0,-0.4570914907649538,-0.0317779729749596,-0.0726144602178897,0.1627487724734056,-0.0687068522112077,0.1830826581467016,0.1612817366820115
258,0.8808395362933423,-1.823919740228135,11.0969472019946,0.294875052658233,0.0452235875512339,-0.096147559330231,0.5766007321434518,-2.372269980903358,1.4800470868417142,52.349118814455174,4.924192728098862,-1.8353251243057769,4.482417947653305,26.85967114866148,3.790092167016873,2.5000177741788936,1,0,0,0,0,0,-0.4470491995769281,-0.0296009776974274,-0.0391449388924686,0.1732940167300253,-0.0334142923855947,0.1942335198964553,0.0669670787727278
259,-0.0908202591495427,-1.3193807803972573,10.807607996129164,0.1132383101449546,0.087926609973728,-0.0224060141154548,-0.1238167059485401,-2.5097947158868976,1.3248410032341775,52.349137883902685,4.92420842056716,-1.73247141955007,4.5378490827160585,29.429671543404087,3.7900920453483766,2.5000055655016102,1,0,0,0,0,0,-0.4388376425628121,-0.0223953514867001,-0.0636092658277788,0.05809539403674,0.0217055630245385,0.1499883639207996,0.0946254075930178
260,0.5337450425050927,-0.9734784192550628,10.238016176420269,0.0629905696631923,0.0153508698052765,-0.0323435030126546,0.5754589471519393,-2.3295712133990785,-0.0646672983113687,52.34915695600761,4.92422477748738,-1.6640989935940942,4.6822826216269,32.67893106614444,3.7900920079843847,2.500001742685744,1,0,0,0,0,0,-0.4320381186910465,-0.0131072313322466,-0.0938507572519709,0.0696902641977132,0.0039919180757196,0.0797378058538489,-0.0312901375564664
261,0.4916767187264199,-0.579101314108692,10.233922290231227,-0.054949707478149,-0.0080672816582033,-0.0335506348725967,0.6683488832655331,-2.3474391489592463,0.2812261771100869,52.34917351905914,4.924241991644593,-1.7522181219551318,4.5520445090009884,35.315007641871794,3.790091996510028,2.5000005456747325,1,0,0,0,0,0,-0.4195765631588323,-0.0169991173050152,-0.1102650065652417,0.0069317481942586,-0.012316833656339,0.0770658493497647,-0.0593445739880055
262,0.2119985620742896,-0.9205320409162604,10.507613694265183,0.0504628527000865,0.0826345579304819,-0.0595321968004958,-0.3355962991262033,-2.0979000269391856,0.2307776928257993,52.34918922394304,4.924259173793753,-1.8820970371742,4.343383389765152,37.83972115421256,3.7900919929862895,2.5000001708632293,1,0,0,0,0,0,-0.4086996827932393,-0.031305801037792,-0.0357872007821528,0.0374453510929928,-0.0113905420154096,0.0953201176344492,0.0320666969789563
263,0.5328206859169002,-1.085198240287704,11.147261260275764,0.0710618059760146,-0.1142817750398962,0.0522107425083183,0.0625221338956508,-1.7802645405225754,0.2240387490382418,52.34920714527157,4.92427666311247,-1.7932466130435598,4.4374213530868465,36.78423487358871,3.7900919919041622,2.5000000535011817,1,0,0,0,0,0,-0.4061058810303611,-0.0335127385313277,-0.0077977111749419,0.0402762101471894,0.1117921570160431,0.0759556207803183,-0.0310390731745614
264,0.1489031622582908,0.2130166647614613,10.228007014647003,-0.1094053240129456,0.0139015846308367,-0.0592214245317434,0.0484801515213305,-1.981434746901808,-0.1105566508188695,52.349225824687174,4.9242942548527475,-1.6460281555209677,4.617884928946487,35.07852840547644,3.7900919915718454,2.5000000167524425,1,0,0,0,0,0,-0.4173817430607478,-0.0092215405378909,-0.1165945100011557,-0.0411490292877527,-0.0027824917002933,0.0202432015513942,-0.079428116031086
265,0.495364825955456,-0.468204493543514,11.619355707306788,0.0501008913631285,-0.0879382502127069,0.1084174233086095,-0.1739307679144817,-2.390618717947673,0.6359175346235348,52.349242253427775,4.9243137877974075,-1.8166305610931872,4.562237325101148,35.01426191618557,3.790091991469791,2.5000000052455724,1,0,0,0,0,0,-0.4162373977269953,-0.0278773226464557,-0.0687619875181874,-0.0241003736240358,0.1158918107847742,0.0981599488653058,0.0142356694652555
266,0.5528991005823625,-0.784179566447466,10.811701150312183,0.1150111282378851,0.1273450807989621,-0.0346689150320728,-0.1637178053149977,-2.185457883621105,0.1258537233809267,52.34925791237352,4.924333968010584,-2.0720434956412292,4.4391763260143176,35.2481051269397,3.7900919914384503,2.5000000016425092,1,0,0,0,0,0,-0.421226530339646,-0.0338695512379714,-0.0524220323696945,0.063331285415619,-0.0400912097684395,0.1141201330245244,0.0420938450178196
