,Acceleration x (m/s^2),Acceleration y (m/s^2),Acceleration z (m/s^2),Gyroscope x (rad/s),Gyroscope y (rad/s),Gyroscope z (rad/s),Linear Acceleration x (m/s^2),Linear Acceleration y (m/s^2),Linear Acceleration z (m/s^2),Latitude (°),Longitude (°),Height (m),Velocity (m/s),Direction (°),Horizontal Accuracy (m),Vertical Accuracy (m),labelnormal,labelturnright,labelbrake,labelaccelerate,labelstop,labelturnleft,pca_1,pca_2,pca_3,pca_4,pca_5,pca_6,pca_7
0,-0.7323932610637679,0.11819580230364896,7.318922448116886,-0.000863163789984953,-0.03614094792030074,0.0032210411646365093,-0.27391775962904263,0.18308151376800977,0.007398118342095726,51.50668406214656,4.861712688905846,3.6650229901594678,0.0017889187830960487,129.83480359663886,5.6635593203385035,0.7266714895018599,1,0,0,0,0,0,-0.11526768107502589,0.5818820635968334,-0.430839818353312,0.6497080582888597,-0.16333125221326242,0.06263576560447037,-0.4505771492392816
1,-0.8294491323564476,0.09300009790384234,7.71362806273096,-0.0009755251282583547,-0.07004660672098911,0.00590568273599739,-0.42010707901992894,0.20866418716780755,-0.0058545928183368285,52.00465312374498,4.895678171005122,3.719711607377487,0.0008140778893884242,234.12360292082087,5.7064961405772605,1.0237906125199614,1,0,0,0,0,0,-0.4119343892034892,0.6054726860967811,-0.44052977607573857,0.5242005581678246,-0.26744488351452594,0.10888848394154269,-0.39653561046139846
2,-0.9742479771350375,0.3179850412848899,8.171963284296895,-0.002415233570890932,-0.05443440525992078,-0.017522970415386353,-0.5817793175981056,0.4257419358218356,-0.01669290206833376,52.19793554022066,4.908643096563645,3.744950233810137,0.0003095844719461586,260.8527092567547,5.722579387433442,2.036286987478764,1,0,0,0,0,0,-0.51946423769939,0.7247802628941202,-0.4077329971258375,0.5307034207408491,-0.280200398985317,0.14875700117786414,-0.3823705422913867
3,-0.920831908541222,0.39576120454810176,8.74826668549269,0.015835009538794152,-0.07392884552286873,-0.0058029591882201095,-0.23098874481821835,0.4546014536706214,0.025433346109467302,52.26414627081844,4.9160454166966,3.7678683489124354,0.00011023825058992907,266.307289088289,5.727904650081885,3.387260023435613,1,0,0,0,0,0,-0.5695991841311668,0.8396936734279531,-0.35261006323477767,0.563352986591397,-0.26214425659987417,0.20032157533263514,-0.3332139150617349
4,-0.4415278597871965,0.5866536971192986,9.025927514935733,-0.037139551764388226,-0.00608389919732967,-0.17708995554404486,0.044415980679502975,0.32489014403336647,0.010404535997226506,52.30751190197074,4.919524276053406,3.7921473387892286,3.7779406831476526e-05,267.358405109017,5.729644056913547,4.875749443001082,1,0,0,0,0,0,-0.6022276244396683,0.9454277612930883,-0.24730777983358862,0.5669918787749488,-0.19582402774415011,0.2711433901783925,-0.3095337801380951
5,-0.4290831830607208,0.34873708887013644,9.277412866595286,0.003606505679273654,-0.09143117056227122,0.11702157571707691,-0.22421976386425774,0.0978919567369077,-0.06285576718786472,52.32931449008246,4.921017493279059,4.030868136317496,0.17519425185889004,267.55544009258756,5.239197676635432,5.3153233047299295,1,0,0,0,0,0,-0.5694742761036158,0.8380111415476258,-0.3082472089242383,0.5506971923794584,-0.24495063262393316,0.06348769594109815,-0.21764621170711915
6,0.052846327737520626,0.20048438028958918,9.643042671652184,0.0322434869339738,0.01487044065504553,0.008060628428260816,-0.033908191770013335,0.12547631939885578,-0.1854737694435161,52.33911905718183,4.921623744995539,4.384338329448285,0.45106831747502996,267.59183588770844,4.705505844709575,5.073446157663676,1,0,0,0,0,0,-0.5054163110645263,0.6110043495641349,-0.3404469795170116,0.42580622952692865,-0.10715026494278188,0.09112555754507104,-0.13897019929934773
7,0.2443945568687453,0.15420892597951102,10.077604330038863,0.017332205340749057,0.07161863870961355,-0.2105940811342139,0.3042194498954991,0.30558955498543106,-0.16500468091628867,52.343262215905334,4.921856389539596,4.7376137170116,0.7957511406688826,269.5471021286046,4.345371906234507,4.719850270828895,1,0,0,0,0,0,-0.4628339553758998,0.444455520069908,-0.35101809337104223,0.30409349737157537,0.03243365479389526,0.16947101349838173,-0.1264224481122424
8,-0.1881920966213367,-0.3557521052929475,10.101902933988972,0.08118943931979028,-0.013120583820651316,-0.13363668659871275,0.35235330180979224,0.4399207829104013,-0.5551039661674158,52.34494396486416,4.921938405389621,5.082556631760649,1.1716676253126463,272.0486000660796,4.099465107819463,4.364142300813204,1,0,0,0,0,0,-0.4353121886072008,0.33545640321390474,-0.4178900255302155,0.2591004662673176,0.10235813622028672,0.13596755968960098,-0.06970896960040399
9,-0.0027855642406971193,-0.34981412980519444,9.93905805470623,0.10121003060286873,-0.025824687037224944,0.00751143585438932,0.5987216054906197,0.4556114772025648,-0.7043666794669096,52.34560923145127,4.921959710989283,5.164808866999662,1.5293877474827193,273.34577662494905,3.955100545501936,4.061019149732188,1,0,0,0,0,0,-0.4059840090675787,0.2598492403095886,-0.40513961480843746,0.18298878735262636,0.10514099876218781,0.0890899981834394,-0.08170828514357735
10,-0.26812065264647167,0.08918699476572278,9.418298308482171,-0.03652382777782362,-0.09053905641649723,0.02957665068187052,0.35727973097740773,-0.08748026354102423,-0.22334628081135305,52.34586625719038,4.921957278818233,5.106973591781436,1.874068119456478,274.2919514852521,3.863593064423321,3.7915771964408633,1,0,0,0,0,0,-0.3771483710239162,0.21288705472133113,-0.32218228637167357,0.09845342734455556,0.015145941178368793,-0.06028666920997607,-0.22678164362658443
11,-0.15683035230237682,-0.146400114856924,10.023174745954003,0.04253297784446457,-0.06342011960283093,-0.060259600043409,0.29866323256065114,-0.4128484762083094,0.011069087552641022,52.34596550204318,4.921944071556538,4.95788504125823,2.1086619112349596,274.7197419188786,3.8201080075044174,3.5790626713238956,1,0,0,0,0,0,-0.35149120807643786,0.16018390474623456,-0.30722570564380586,0.05429448344996348,0.04786264186896316,-0.013547297551919945,-0.07326776343684237
12,0.014299621080409414,0.2297043933058382,9.871929799449969,-0.11037551985130549,-0.08988177410900128,0.0639666031850348,0.5203425441679868,-0.4359236088420809,-0.3519695219689621,52.34600146926633,4.921926636068899,4.769970616648575,2.281052079704986,275.00725549310647,3.801737312693238,3.3993694214451753,1,0,0,0,0,0,-0.33925550137499183,0.14618555048164275,-0.27178711778157594,0.007293145559506893,0.00473421380277355,-0.06225514488921875,-0.2436337243575278
13,0.03217198541057287,0.019455870102945805,10.012785349584545,-0.056765206655202044,-0.0368117611442955,-0.022496848444064882,0.4184525528044951,-0.49944116699669866,-0.08922759979782546,52.34601611685929,4.921907155140948,4.820811248225664,2.3988517652989874,274.86015346247615,3.794459938440018,3.242402958954649,1,0,0,0,0,0,-0.32603641539164063,0.11297551240042662,-0.26787294674290196,-0.010730352988712404,0.0442102268833032,-0.041762187827157744,-0.12847554296830502
14,-0.18279488308502423,0.14540356873905969,10.000075741184826,-0.044502376387516196,-0.0067183103965084146,-0.0005079779072844209,0.2515017926886658,-0.7635393335203955,0.11440047458077152,52.346023581398235,4.921886674388947,5.002302278861445,2.490409487984264,274.59260141006826,3.7916915203002737,3.0965779776066493,1,0,0,0,0,0,-0.31597375870486166,0.09973857462363793,-0.25043445657303437,-0.02069953645345284,0.01783678400869966,-0.11734561666319736,-0.12049195214904215
15,0.0304807829528487,0.11198490844445794,10.06653925647639,0.07430754096154008,0.022577786264592326,-0.01453407352099718,0.04218475195558602,-0.6748062875031633,0.17991437232578295,52.346026096366174,4.9218664959967215,5.034786218898747,2.4571425351476934,273.9680982372121,3.7906674263108884,2.979265686322153,1,0,0,0,0,0,-0.31254073899057594,0.0772754407197425,-0.28127979821154736,-0.01085980715850305,0.04015950634086568,-0.09350354579459133,-0.037064385379004694
16,0.12971573470210437,-0.35663984019258954,10.382949791325206,0.0853998258729008,0.002023640541883278,0.048372675148544146,-0.08340215185240504,-0.9076501060557794,0.6949910011848448,52.346026943714385,4.921846736269272,4.9781003791558955,2.354290495103184,273.2447104353122,3.7902961912211848,2.878972281128537,1,0,0,0,0,0,-0.30250820219629115,0.07052403324796994,-0.2930404511673471,0.006698450805818689,-0.04515044095885637,-0.14415821803529227,0.07230267199145173
17,0.25428998759094573,0.12183882091429771,9.945922652108221,0.06620537933268653,0.012035765937805542,0.02475596057658303,-0.08420453268997576,-0.7594451612028288,0.48381399201860514,52.3460272292047,4.92182584470771,5.002001906342655,2.544187152804882,272.0955422377778,3.790163722941517,2.7598460370651443,1,0,0,0,0,0,-0.29265920961839725,0.05087703348159248,-0.2545153514865179,-0.04290487650009823,0.0006543674326082126,-0.12737518161601685,-0.053059818087256544
18,0.13665459902592697,0.8383445965078535,9.635390434178971,-0.0974595472642564,-0.007334096518012888,0.01305031095267867,0.05594484905460702,-1.0785911557718868,0.576052865568541,52.34602479595114,4.921804575782121,5.075456380185954,2.908111928098161,270.8275885337016,3.7901169899564837,2.627010661406354,1,0,0,0,0,0,-0.27138087378321696,0.04333403953291199,-0.14451103026532816,-0.12603666908850725,-0.02440490925780137,-0.20173550527277756,-0.23888570129182038
19,0.5128624684887657,1.4642562639416123,9.094676787234352,-0.1956786072625445,-0.09119034329972511,0.009991880346416737,0.6414192361967139,-1.5030833288034193,1.0734486519459236,52.346023976134305,4.921782227474219,5.2482402959663785,3.02799275144697,270.563329297242,3.7901006255201963,2.554528529599461,1,0,0,0,0,0,-0.2612048939379291,0.05224568478694776,-0.05662204134011334,-0.18772440324236825,-0.09171799066875226,-0.21346515581958303,-0.412409536139013
20,0.4086278470203867,1.7220220895264418,9.012613622055792,-0.23348458536281794,-0.08267997983721648,0.0872311784635078,0.36234298857209357,-1.6686705645722193,1.1264031850338658,52.34602369991992,4.921759201434996,5.470667823182485,2.9932147855285134,270.5854251310755,3.7900949676953943,2.521845886364231,1,0,0,0,0,0,-0.26503163251966866,0.05928110446792874,-0.0662376253739846,-0.16396532871505073,-0.12698338814474078,-0.32016158301441316,-0.4234268769178344
21,0.24348456309853383,1.1858573856140242,9.453133760540668,-0.0981216871910488,-0.08623385480645353,0.03927146944060316,0.622483889459078,-1.1525971063477547,0.5262393113673337,52.346023606857194,4.921736585144263,5.6258905727058135,2.9658597549116843,270.5965519222654,3.7900929619942665,2.5083832758050923,1,0,0,0,0,0,-0.27496052666362963,0.0437622508238413,-0.15183814490915948,-0.12987414552411866,0.017097751902726183,-0.15132076737295516,-0.3079178007074272
22,0.45853683414706786,0.8197106879503726,9.432364175745173,-0.07787466938257594,-0.03719524951464141,-0.002294363186694036,0.5956640650100055,-1.070208032420453,0.4197568865813336,52.34602357550231,4.92171410546749,5.741562114724311,2.955546990117001,270.59929905110647,3.790092307929881,2.503123830366623,1,0,0,0,0,0,-0.26960384238578866,0.03903810897153917,-0.1526662136937705,-0.13426825988093113,0.03478862344414419,-0.1419103318268125,-0.23661626096857877
23,0.20402912078395596,0.3878453358681238,9.497284887197289,0.015789545505390495,0.02324499895623576,0.011507101124742543,0.18175610670815967,-0.5015626672781046,-0.2712668001580648,52.34602356493815,4.921691353483874,5.8798440389604565,3.0128115348973625,270.71016321941056,3.7900920946377736,2.5011393913524915,1,0,0,0,0,0,-0.2773658869619492,0.027903162212586312,-0.23144604828129492,-0.09570824325769961,0.1450436084597383,-0.11127364848353606,-0.1312151886088098
24,-0.12583738197741334,0.46687617140216364,9.383386017456699,0.0030397972099837044,-0.035596060832475546,0.06311095047440202,0.19597139469649244,-0.4199404689263262,-0.3921809961433974,52.34602356137886,4.921668192855409,6.0330712227484025,3.1075135893522745,270.8517983261228,3.7900920250826595,2.5004088845984747,1,0,0,0,0,0,-0.28083345538848337,0.0375989379642026,-0.22527457558070674,-0.10226648170712625,0.13899399448106228,-0.13845787725441538,-0.2006904917818237
25,0.13150272641385408,-0.006359821972961144,9.811299822017695,0.07206442444908032,0.0054948339460275525,0.023473825814808794,0.006802722764682634,-0.10520314761327515,-0.48228627694942217,52.34602356017965,4.921644578125738,6.091007405395717,3.1572208738403686,270.41190482127564,3.790092002400555,2.500144946598236,1,0,0,0,0,0,-0.2776866860807934,0.02344111005671972,-0.2579953831379849,-0.09555362570774331,0.20030151536625074,-0.0828177409563923,-0.045019841841128325
26,0.2937085375091545,0.21259396553471419,9.550692423490798,-0.0226212243398195,0.032458950165904395,0.02401631155077951,0.10898346276650708,-0.6583444556762705,-0.028322166639054736,52.34602355977561,4.921620811994496,6.096838396882644,3.1779712803126174,269.8067894776664,3.790091995003861,2.5000508977164517,1,0,0,0,0,0,-0.26187798800473716,0.033568401555470716,-0.1755358625487207,-0.13360747486990418,0.10206766617839179,-0.1668102031909271,-0.11438722255345542
27,-0.2076221325671871,0.5284729022300372,9.114097649835852,-0.016117407712538494,-0.0023398698804795934,-0.05128328985494517,-0.038586030684148065,-0.617357207963759,-0.2702306291252412,52.346023559639484,4.921596677529352,6.044978747185712,3.2238764810453344,269.38622304249986,3.7900919925917798,2.500017747004313,1,0,0,0,0,0,-0.2678901451008171,0.03103408670214941,-0.1884778576055303,-0.1250017086777775,0.15310564827994919,-0.1428645082987272,-0.21483686525694207
28,-0.012365205086392966,-0.13199197594094492,9.461567827641694,0.2052740920952408,-0.02951153000874332,-0.04904160046595819,-0.23287384539134956,0.29141249181855533,-1.474973728605168,52.34602355959362,4.921571784547833,5.965958672775669,3.286633041509044,269.0209388844288,3.790091991805194,2.5000060606593144,1,0,0,0,0,0,-0.2769307650671486,0.011005715631074673,-0.3121535308272211,-0.08297535360872083,0.33465822262319417,0.02981004273864019,-0.03942576627455342
29,-0.3697632711894715,0.09029097974968098,9.141873606732931,0.07376973932202352,-0.15215638137280157,0.09136120611771771,-0.3601701949768268,-0.30134132944336833,-1.0455211037849375,52.346023559578164,4.9215469565251055,5.8724549927250855,3.2909876577310047,268.9620644505663,3.790091991548686,2.5000021208761445,1,0,0,0,0,0,-0.2703888801459077,0.04077314467347497,-0.2479567902663498,-0.0958363040191577,0.15230180715482303,-0.16155536318769523,-0.1775630133481402
30,-0.16831624240478463,-0.038258645849771594,9.313294908107403,0.19681674060719856,0.10319082560756904,-0.036454221624185365,-0.8809650848057434,-0.3238597919648955,-1.2007565891923673,52.346023559572956,4.921521832305032,5.773142313374605,3.2603793673730013,268.98888330388183,3.7900919914650384,2.500000685725569,1,0,0,0,0,0,-0.2627440422163176,0.007167863972719042,-0.26751708824834675,-0.08285178062891829,0.2474020056290231,-0.1371521852230926,0.035208493237807593
31,0.4571243231894895,-0.7622261123057176,8.422465788828013,0.28170806954452776,0.15755615233204773,-0.010115989703045527,-0.3052047231528362,0.25813211797011065,-1.705884952075266,52.34602103012965,4.921497245040429,5.588785972988347,3.2195752109892988,269.4755156182648,3.7900919914377607,2.5000002217100503,1,0,0,0,0,0,-0.2628115351847802,-0.01054679554172176,-0.3380604947724281,-0.06722193132909512,0.37869523912637326,0.09581411041953622,0.07639513545353561
32,0.5641835166801,-1.7109127022773318,9.144862374324436,0.3536161731005318,0.16396164795745427,-0.00038880894119714716,-0.6132905800991129,0.050922590106468324,-2.3251583802225424,52.346020177904364,4.921473154656989,5.359300110263335,3.1757983867732937,270.09074917888984,3.790091991428865,2.5000000716837008,1,0,0,0,0,0,-0.24872008825995298,-0.0071122381210679325,-0.35383663428746787,-0.05666704560443536,0.33075365403682144,0.05250629942161379,0.2874771610398567
33,0.4047817733084854,-1.9688507466096743,9.491511143870607,0.3343615760265852,0.04025114666759959,0.02581522147039742,-0.1235785363515775,0.8656869150414108,-3.004493834619687,52.346019890770854,4.921449229938354,5.311442211742646,3.15908253856667,270.4030185720416,3.7900919914259643,2.5000000231769057,1,0,0,0,0,0,-0.26787802739242644,-0.005322546537048303,-0.4263306735318554,-0.04164928335320348,0.42088823850496543,0.20660845447141454,0.194090555053509
34,0.42946410946184205,-0.979703470963601,9.229581672720323,0.10363286958758891,-0.06756273643669469,0.04187283855082767,0.05498082633020446,0.23189611818936084,-2.128570329167852,52.34602232347079,4.9214256783091175,5.364091864243723,3.158167636835868,270.6271475413272,3.7900919914250184,2.5000000074935995,1,0,0,0,0,0,-0.2652675571237487,0.022230815214623084,-0.2987368663263145,-0.10139100489981284,0.24397820484462857,0.033345838110596875,-0.06315757209230283
35,0.8914526504901461,-2.5224221637096345,11.745834048702802,0.2634220874344623,0.03960562289614926,-0.061833986898136656,0.3615428891628532,0.954765360709956,-2.2622844914207025,52.3460231431011,4.921401615360938,5.348164571065085,3.171716796176492,270.83191083013196,3.7900919914247098,2.500000002422844,1,0,0,0,0,0,-0.2643623826873174,-0.018592228092891752,-0.41933681739419276,-0.0612653459699348,0.43408905264124015,0.29993076696201487,0.44176827473472563
36,0.4617509328051829,-2.294507118340608,11.54586855460814,0.2201475248790953,0.0021330274576916025,0.023363683685514544,0.22639887942065406,0.7685741392721781,-1.9467343228660179,52.34602341925264,4.9213773819342626,5.288304068119285,3.192275343680739,271.03281656200795,3.7900919914246094,2.5000000007833583,1,0,0,0,0,0,-0.26506661614325394,-0.003332243280540138,-0.3916402734077589,-0.06458152911052882,0.33352623148226157,0.17087687813072194,0.3337405211191515
37,0.6423910144288283,-1.9966811356925749,11.24050454388982,0.19753285411772725,0.10056461270713904,-0.0023501969547482134,0.3382671302149943,0.7017700353431907,-1.3856175554010508,52.34602351229419,4.9213534095236815,5.2621747695897625,3.185201477038892,270.6814734384566,3.7900919914245765,2.500000000253277,1,0,0,0,0,0,-0.2613352366967272,-0.01143753255087641,-0.3531629679038323,-0.08389090985058385,0.31169759777385975,0.14903361471213125,0.3186860088986541
38,1.0090390984256765,-1.392352266929294,10.771205652064046,-0.01566055308069353,0.18586916749870636,-0.14124924272764988,0.5985322290279131,0.20389251560446664,-0.7601341276030739,52.34602354364194,4.921329841993506,5.257260289279429,3.1616650467542633,270.17388530514893,3.790091991424566,2.50000000008189,0,1,0,0,0,0,-0.24790464374892668,-0.007848996003942784,-0.23872680809652333,-0.14576056109815785,0.24236267945198164,0.11025697557840484,0.15187162236632448
39,1.3153888380411818,-1.227950568549303,11.067448361116073,0.09159723522533239,0.27101082770499185,-0.17926555449660597,1.2740854251145977,0.047641111984668416,-0.0965255799420256,52.34602355420369,4.921306409454227,5.411868974373633,3.123331149554992,272.0220322361995,3.7900919914245623,2.500000000026477,0,1,0,0,0,0,-0.2513456142695196,-0.021289368385411227,-0.2163360296333096,-0.17083473078506428,0.2789009959984409,0.2274803189569762,0.22843522626471396
40,0.7835786295588133,-0.6124954353078009,10.241859752297716,0.09954259057351691,0.2015185673764811,-0.18333475219322098,1.9687170645394958,-0.5045042067282788,1.165464666020716,52.34602355776218,4.92128302192217,5.650389713656037,3.077851078682518,274.53999568759514,3.790091991424561,2.5000000000085607,0,1,0,0,0,0,-0.26292512392953193,-0.0051273611627262496,-0.15094065469017587,-0.19271981267800073,0.1776643596557653,0.1781294296672765,0.06008979921138759
41,0.1510717553574228,-0.7089007793428276,9.861978767291287,0.14341751416836923,0.09016664969826106,-0.17598072107651433,2.31754838119649,-0.6510837491618847,1.2280356270904267,52.34602608840267,4.921260920816783,5.8142774993359465,2.9888636675614206,278.16006624265185,3.7900919914245605,2.500000000002768,0,1,0,0,0,0,-0.28458069394217106,0.005103363475652905,-0.19264697526117408,-0.15845392721149676,0.18401264714603574,0.20260661206419375,0.018315514287251436
42,-0.06370380014092447,-0.6495191997493414,9.588473159569569,0.10279976332898685,0.027383891488465734,-0.16478276507584175,2.1617646761212175,-1.0234339870221356,1.5683090948944118,52.34602947047286,4.921239248618023,5.932178333290275,2.8754573009189026,282.0798257618186,3.7900919914245605,2.500000000000895,0,1,0,0,0,0,-0.2981251053270473,0.017885449695829257,-0.18235120488681103,-0.15274178123454937,0.10892836350984275,0.12244516987049597,-0.022511388239154526
43,-0.6184158696615443,-0.2835593631343371,9.420007807778639,-0.07888141055977399,-0.08313264083669425,-0.15229133541596068,1.4211687418798227,-0.759123032932528,0.6520144374221377,52.34603313940851,4.921220897972834,5.848485418807155,2.7592246196189065,291.83637777244223,3.7900919914245605,2.5492208157334257,0,1,0,0,0,0,-0.3498789128463539,0.04918328349590912,-0.250768162141027,-0.11118427922236061,0.08867892265460078,-0.002293054550704916,-0.20538851138154862
44,-0.7689906996291593,0.7491153081687727,9.332139763346918,-0.05948794513179746,-0.17791074313536004,-0.09861192714079385,0.8592412758165074,-2.5738632864209574,1.273856302728756,52.346039434437024,4.921204290474947,5.660125565779867,2.643384397724568,303.23990016231033,3.7900919914245605,2.629768065024521,0,1,0,0,0,0,-0.3674484527809462,0.0906786136918344,-0.12998703831644748,-0.15368516789098766,-0.15690809320498025,-0.25605395849503004,-0.27261951861847067
45,-1.0323448454256763,0.608160321772521,8.974852916371216,0.17895755914795297,-0.23436570287247557,-0.12735871561574813,0.8249428919733389,-1.327415809652306,-0.13647839985177446,52.346049143695744,4.9211901712898625,5.458592952788158,2.8885234652760463,315.4800481888487,3.7900919914245605,2.696383651459365,0,1,0,0,0,0,-0.42588083098051066,0.07040289960521671,-0.2673276851198901,-0.1480118273107463,0.11632045294765521,0.007697971279114385,-0.2608824397493347
46,-1.0040097374465649,0.6625284724686669,9.344903902444463,0.06549350669642402,-0.23017754858018763,0.03320642232038268,0.13105119077330296,-0.7242116793466388,0.13032832808034378,52.34606000328398,4.92117751744185,5.25751070573742,3.3411312909014583,327.926692458496,3.7900919914245605,2.7509607538275778,1,0,0,0,0,0,-0.4583990798177976,0.0786570489173627,-0.23486553720301565,-0.21455318662223297,0.06145358889347998,-0.15700481562474916,-0.23470253029440602
47,-0.5354021976372987,0.16807004117053803,9.70131654576831,-0.019588304694801814,-0.18820232610848678,0.10039464334159923,0.6202493181066155,-0.4428729135595731,0.670370473115621,52.34607630932673,4.921166941426915,5.3491898498495845,3.72576973002289,336.22503901222177,3.7900919914245605,2.775712941852708,1,0,0,0,0,0,-0.46566316902254196,0.07616498467530344,-0.17944923216526784,-0.29730040302321364,0.06629209386612325,-0.10973281328537876,-0.15303668862420228
48,-0.2431307010142038,-0.11288711807367835,9.393834898473076,0.014769357116385419,-0.047249854505667294,0.031045165570998304,0.5612631260411657,-0.1351624840979025,0.2273405972291364,52.346091920958685,4.921157693891289,5.5976263667223,4.054199562999642,343.34516442675016,3.7900919914245605,2.7827017277204216,1,0,0,0,0,0,-0.4729553862753385,0.06125259525388949,-0.1641527597327688,-0.3516251858740984,0.18674897963371734,-0.05383934043518273,-0.07692064735947032
49,-0.3849242225293354,0.06957898251158895,8.734466027910836,-0.00535329146185393,-0.022416087217959745,0.07368599943781023,-0.23176299611518392,0.05054948369939083,-0.16564703359260252,52.34610982806986,4.921149524993455,5.696383181350587,4.213756883066128,344.50941315580604,3.7900919914245605,2.8176225037169518,1,0,0,0,0,0,-0.47746671435685106,0.07096933959334085,-0.16836896628179795,-0.3481738109171666,0.18863135150860186,-0.16036094274468976,-0.13127245334327178
50,-0.0328487910491182,-0.12586247224050937,9.056350792320796,0.09420062353689722,0.053959079434702864,0.028914370875531392,0.0388803626680056,-0.2892947151143355,0.49103556159064105,52.346128508578644,4.9211417157235,5.703738374691725,4.280884458734932,344.0092304109382,3.7900919914245605,2.8721186811490953,1,0,0,0,0,0,-0.46209511483894034,0.06726951753557314,-0.12070030419507227,-0.3763019073335834,0.16838677453925988,-0.12163705705615739,0.020218318403097783
51,0.26852807801311596,-0.2239749554657494,7.962831640275765,-0.028514140476727942,0.10178903324920519,-0.0003157576099121623,0.6560391612209542,-0.16342802599620254,0.43538561300472844,52.34614997910372,4.921132754935984,5.610748281645919,4.364685465416978,343.07408198811265,3.7900919914245605,2.948634742501083,1,0,0,0,0,0,-0.4522217547624077,0.07523310525741506,-0.07249902160222059,-0.414207765849247,0.18192366159159715,-0.056080455544753646,-0.12229495887017774
52,0.9741727936140538,-0.1886997415578922,7.5590630996619925,-0.16602193857875414,0.11647594615942937,-0.04527615100849269,1.544883786884509,-0.3530586783066541,0.8579971863421529,52.346169860205315,4.921123092366583,5.470572010458234,4.4657059373729355,342.0464713739767,3.7900919914245605,3.0371835375661798,1,0,0,0,0,0,-0.43445591418987367,0.08753743541966304,0.025380561970238004,-0.48338728051742874,0.14297270967843317,0.00822688091595142,-0.20750329402642131
53,1.1750110916797551,-0.5057723074180615,8.44076587656756,-0.02374859934516088,0.015380557703268058,-0.015822441561812995,1.5608967296375313,-0.32025076231677724,0.48325227986996006,52.34618920579505,4.921112560106148,5.230673214974643,4.549858116223976,341.22126907822326,3.7900919914245605,3.1138418640575747,1,0,0,0,0,0,-0.4309850484019137,0.09275790721935816,-0.013667648295292727,-0.4695428563340445,0.18147056679602414,0.09384696190200369,-0.06771181224055331
54,0.8969868506464729,-0.22446984693762917,9.124506945666537,-0.003004824850129574,0.11747393728202883,-0.008103496330973127,0.5120665128021442,-0.8489793473676468,0.7241575770703644,52.34621090040058,4.921101737882626,4.940750751195679,4.622892280797882,340.4551085739969,3.7900919914245605,3.1817141234595487,1,0,0,0,0,0,-0.41929984284180577,0.09463169741812827,0.020209235266005394,-0.46339395329211897,0.10409812037618293,-0.09162578388737021,0.046760155275255774
55,0.3941354205369396,-0.13677209403137683,10.09806669490216,0.09198960467508299,-0.06930593292109725,0.03955144639406123,0.5246016269592192,-1.3070272138358698,1.1373100625284003,52.346230856999824,4.921087958285813,4.810171540605817,4.767094489060005,339.9960409967125,3.7900919914245605,3.2145754418429577,1,0,0,0,0,0,-0.41622203281819,0.10885774508313177,0.03308123318252002,-0.4699271269825194,0.05085078777360869,-0.07386952818622194,0.07039828193705921
56,0.20104199688732216,0.10549295228427938,9.83772034886724,0.047377181196350794,-0.18750231809821377,0.01355964050953094,0.8086266526273815,-1.0424563306152994,1.034342533660881,52.34625275746794,4.921072239107583,4.768516511298376,4.953124934979183,339.6228183103527,3.7900919914245605,3.2260433480526065,1,0,0,0,0,0,-0.41987165341869037,0.11064476831441424,0.0479407747191867,-0.4999376465552189,0.09009504618569467,-0.01419211797352006,-0.07610696469815884
57,-0.099144498934848,-0.5027757751744273,9.842847351348178,0.17311683713677856,-0.08973299187488062,0.008903329949114445,0.254341551546552,-0.49597138505750826,-0.26937837529744013,52.34627278342683,4.921055873254854,4.657229778415017,5.1319317283003745,340.11387123353654,3.7900919914245605,3.219963443558841,1,0,0,0,0,0,-0.4202626078079334,0.08705641618676166,-0.039713478691176606,-0.46312923694065244,0.25631846065833336,0.031631912458931113,0.09694580261405097
58,0.16948002191096811,-1.082817065509648,10.577189893540151,0.2512949678047174,-0.053617909720691664,-0.021460662944016513,0.5301916454281461,-0.6178187943973708,1.4116719894404297,52.346294707263745,4.921038973939616,4.502274938457009,5.303131287498226,340.84806323104925,3.7900919914245605,3.204881010862828,1,0,0,0,0,0,-0.4043749144256876,0.07299285691449178,0.018058142955691563,-0.5111099974586998,0.1630466098274177,0.035504453568898205,0.31936498790085605
59,1.1807030614235594,-1.774032870027177,11.882874315028692,0.4235668464406621,0.13035170775399416,-0.06418896712285976,0.8910354605744135,0.13005831863997597,1.3840856735033813,52.3463147410961,4.921019671776535,4.467266300699445,5.404543665559209,338.91441461953303,3.8828909290412947,3.2464617185307243,1,0,0,0,0,0,-0.39965049928521196,0.07471805190541582,-0.011411450147297946,-0.5127983488306059,0.295359716349271,0.24696265210358098,0.6171403715155556
60,1.233929334402563,-0.5246995849719915,10.711307468055782,0.030373988829076326,0.12748643920079752,-0.015529155553664353,0.04571936587748926,-0.5914727688076284,1.3363887062430033,52.34633666758576,4.9209989327711945,4.499626020587747,5.466468762690498,336.2210037927998,4.034450141353757,3.3250167826845716,1,0,0,0,0,0,-0.3936342422354069,0.1707457228181237,0.1622351875575348,-0.5543839246938291,0.09291222925099522,-0.04558825038670159,0.20741774814950997
61,0.6550858829566791,-0.6649983949891748,11.910998581948721,0.11246236800501748,0.03723118386839931,-0.048916715193367016,-0.3543768548342948,-0.5240954040272143,0.7639568553065652,52.34635923175344,4.920977396854058,4.377226349662345,5.562237562975135,336.4500481005356,4.0961446600440246,3.4210177429529067,1,0,0,0,0,0,-0.4092095144875818,0.19175612365047093,0.10440212884959604,-0.510050535427782,0.1865036940113903,0.04555159351864757,0.3317900502918584
62,-0.07381654022441808,-0.23966947338405703,11.482152108003172,0.030238873133404814,-0.10692355363484095,0.03581335469624132,-1.0470711959566614,-1.4858699185879372,0.5363172156455207,52.34638454021047,4.9209552773839,4.167114669514772,5.680722739799713,337.52044247106045,4.0950524386112255,3.5243786643991273,1,0,0,0,0,0,-0.4033034203210411,0.22914377256426105,0.1695917479562301,-0.5188934260447375,0.04889458843747069,-0.159501566113274,0.18568551935104194
63,0.005381186586392778,-0.4938527849129039,11.071555745443392,0.17793089398894468,-0.004895622543137912,0.022700871363975663,-0.4572053283147386,-2.0183841349301,1.492889849463233,52.34640824383761,4.92093232764131,4.136399699902573,5.817086854378866,337.4883922206943,4.095489006430298,3.582872633867692,1,0,0,0,0,0,-0.3849635603260705,0.22058388055350275,0.22831614260694005,-0.5488798671341389,0.028244324571615465,-0.12337418717476789,0.3385692391831027
64,0.36751535614695174,-1.452907851477064,11.494978068330287,0.45105909658973087,0.013714296084323854,0.0015744514277810165,-0.4162480239703071,-1.7024793506017493,1.8064418605689225,52.34643140676213,4.920908783222953,4.208050439201806,5.961851763402986,337.12867764739065,4.103181239504915,3.6120660957028274,1,0,0,0,0,0,-0.377171486449083,0.2063123194557889,0.17479198617106015,-0.5372606127833411,0.10729367061859743,0.011113578557214386,0.6367271929290567
65,0.2370527703091287,-1.7538450867141677,11.725007982561442,0.23917737395302924,-0.11420918419692762,0.07729615434103082,0.12711407241212042,-2.3004359192893054,1.7296882794333635,52.34645185807045,4.920887265520634,4.283960840665244,5.86623673158076,338.4980792892514,4.068631240527054,3.595200014071477,1,0,0,0,0,0,-0.36956015923343943,0.22393143814288194,0.21119339234063159,-0.5544342218412801,-0.010388542840634122,-0.034780797996102314,0.5001950959326704
66,0.3291396949537557,-1.1937002253257663,11.239698813182176,0.18317008134806134,-0.010171725648970661,0.037730474081617026,0.2419924032480739,-2.0878446451808443,0.3131835884987524,52.34647392521698,4.920867377109943,4.3548122887941725,5.63175060300441,340.3630295855916,4.006606280210124,3.551985806389043,0,0,1,0,0,0,-0.38351442187709595,0.195102291536082,0.15664525728889633,-0.5370115158732518,0.10442272488141176,0.007861603345667136,0.3446575751913507
67,0.13016622051108412,-0.9048248762910296,10.772238808801818,0.036009878785150495,-0.02746613678309673,-0.01766457486800197,0.678069462377502,-1.608673647425158,-0.16298765071053178,52.34649147789196,4.920850256906722,4.3863215609601145,5.106256246464139,340.0201751728192,3.970830168998062,3.5575291516402885,0,0,1,0,0,0,-0.4129033065470864,0.1964391847083162,0.07573849931359065,-0.4699711745542874,0.12529265745451665,0.06209778716668331,0.13956107847364904
68,-0.7217046520452488,-1.2103392944432434,10.026917594999404,0.010842218800339896,-0.11863320820219372,-0.03349374387389671,0.36981998180771536,-1.4173905289809947,-0.3289160066924264,52.34650498010027,4.9208350132152745,4.397123518663413,4.424952883643834,339.04311131469285,3.954426301370852,3.596771422063289,0,0,1,0,0,0,-0.44659974507250655,0.2111634522777439,-0.06243496329039256,-0.32755483251943196,0.09194631132818488,0.013279153337666962,0.07907997371002778
69,-0.964293115231477,-1.62332241343281,10.575741168378434,-0.009010205748880788,-0.21376636065447138,0.004273011895993113,-0.04220169299324711,-1.0679096989832915,-0.6195311130791916,52.34652217650005,4.920819123749475,4.461328449184158,4.185900082679469,338.9566372639902,3.9118353375009707,3.5388012525479144,0,0,1,0,0,0,-0.4585168323484277,0.19304011326828144,-0.14925070593340634,-0.2769046865965051,0.10463295496810737,0.000233124618311045,0.12913008174771495
70,-0.36788215124745394,-1.973648175391991,10.644123555885754,0.14697344341903307,-0.04790723278699774,-0.0010647254489133482,-0.39369258659171175,-0.982694378358343,-0.5549164246997984,52.34654061755449,4.920802701121286,4.555617756624823,4.213935214443644,339.13401555220577,3.850722608601802,3.4155493625984117,0,0,1,0,0,0,-0.439186825549611,0.13648017452514832,-0.1624223859020257,-0.2962328917145676,0.1478479899090687,-0.016140713762619444,0.3497055681643982
71,0.439944423084511,-1.937516748980411,10.212772128293784,0.1649866002731277,0.08628268143551993,0.03529787203291863,-0.16238167898749856,-1.567315271013818,-0.2948185945623994,52.346556948519,4.920787690007846,4.520199386142271,4.074614787762502,338.3769619151148,3.816291223263945,3.2953576133480516,0,0,1,0,0,0,-0.41229521081153747,0.1145837891999451,-0.11077477012194234,-0.32779616798699723,0.0616863463637339,-0.05568044958133213,0.3750966720675176
72,0.40897364822251064,-1.550736971388883,10.204703632755702,0.10368329810928581,0.130466777743636,-0.01351379867272301,-0.4690944827100779,-1.9952524425374898,-0.21625218707393018,52.34657256854764,4.920773785216985,4.413158453137743,3.81703097643462,337.35050926775665,3.800609456206638,3.1837225821832384,0,0,1,0,0,0,-0.4081540830640805,0.10218582961263671,-0.1122365505731077,-0.3079690925824394,0.0044315425612467445,-0.11713881750094655,0.31136294160638744
73,0.3970242135784424,-1.2281249268102639,10.29139035841912,0.04441607652518732,0.05755955396416848,0.032020678737084945,-0.2924245651158232,-2.0030025872766046,0.19764368800040394,52.34659047848784,4.920761838560425,4.517700793185002,3.751561611613784,338.6180183344882,3.794127970822271,3.136687926844207,0,0,1,0,0,0,-0.41871318702709925,0.10800065517122451,-0.10533480674817691,-0.3145540999506928,-0.04281424121317232,-0.13714714845915507,0.22323020649687728
74,0.2793341372571889,-0.8421429865200001,10.06621452417372,0.07034063619738218,0.06582189558491601,-0.020594936216005735,-0.13108190157161034,-2.3041430169548316,0.6484821173152273,52.34660663050824,4.9207511804744914,4.7406926644128715,3.8062936375870233,340.5399705995974,3.7915943509978827,3.1299016758544895,1,0,0,0,0,0,-0.4218684661043081,0.10820499823923775,-0.060887823758601856,-0.34160258187024584,-0.050205891371697745,-0.1593339920301249,0.18992413937748748
75,0.42447774942458105,-0.7503842471562691,10.117613547648292,0.11845787675677044,0.04663945338273581,-0.01047667371702894,-0.355641974731874,-2.2448704908225285,0.6109843503057525,52.346624719688215,4.920739044878733,4.686192495134803,3.728913695150402,337.0899778512144,3.7906391132099366,3.125860919253738,1,0,0,0,0,0,-0.4163031465318965,0.10549683873022514,-0.08624771892036347,-0.314720891148812,-0.05451871059669615,-0.16162428505716564,0.20896868441383062
76,0.5103760550069331,-0.3742777652468633,9.262576464603661,0.0535407970174549,0.05189422455700311,0.02583072422260574,-0.6933561020235118,-1.7922818567095369,-0.04872736011807788,52.3466384026569,4.9207257809570235,4.474586954611004,3.565663225650395,332.10710068467034,3.7902879222628267,3.119493126629556,1,0,0,0,0,0,-0.4158202955235185,0.10454389521424698,-0.12385155749350259,-0.27888098286454804,-0.03678949305557406,-0.1826285570313838,0.04665862148227388
77,0.9824382199413237,0.2757635684272206,8.85901753393924,-0.1611193721629194,-0.005520074436088512,0.09536682642987349,-0.20909858491875294,-1.8281902425439402,0.11633488595909316,52.34665313051729,4.920714047972204,4.413428571319681,3.455364121101592,334.5836454172652,3.790161347751875,3.101728869771742,1,0,0,0,0,0,-0.42679029596399926,0.12222016010500554,-0.06378365101685923,-0.32225887835684547,-0.12682809284808028,-0.2206280989706328,-0.18764884170618976
78,0.7546359044443466,0.23865003240665617,9.178495227420509,0.03275774281457158,0.10391413481874567,0.047670098394265385,-0.442526402421307,-1.3791468153399111,-0.6526074316015623,52.34666821042477,4.9207034611264175,4.444108175316619,3.3825962075871336,339.2003190125484,3.790116215400927,3.076946754698645,1,0,0,0,0,0,-0.4535109859606225,0.09724872307459294,-0.16269028726088755,-0.276257805051971,0.03051378398693459,-0.14013739769421063,-0.03574947604561958
79,0.060102697366647306,0.33679878529192353,8.75492385498216,-0.049710017230127426,0.01046776375821079,0.04452415645691887,-0.5957063312832447,-0.9442441034561836,-0.8580172379751916,52.34668340894467,4.9206932564140535,4.3648460692544955,3.4514333666106802,341.74849666368834,3.7901003729356026,3.063918969104557,1,0,0,0,0,0,-0.4737598039136911,0.10223145897824347,-0.18549396120038308,-0.27188887359165326,0.044206806267867216,-0.1547095678220991,-0.19094908807439198
80,-0.25745630145933013,0.31827990030159165,8.971805453545345,-0.07411430893156132,0.04403152679819959,0.062134175298984046,-0.7501384931897302,-1.0519698402877158,-0.4519104816212674,52.34669864742772,4.920683179108529,4.220118902672576,3.598568736834929,343.671641323092,3.7900948853268974,3.059082444203278,1,0,0,0,0,0,-0.4730736603313612,0.0965391510884714,-0.15936416110062926,-0.28719405627923367,0.013753361970403928,-0.22520104424410237,-0.13318110739027714
81,-0.17800649620410616,0.575537155628927,8.749577735004094,-0.15852505046990817,0.044191847619430506,-0.044740443564081425,-0.47144158641682815,-1.6967032654305763,0.3101649441506508,52.3467164288168,4.92067282642642,4.106121701407866,3.715543348652623,344.20591294782065,3.7900929351336843,3.0689400734549057,1,0,0,0,0,0,-0.45714835452287383,0.0998735815094046,-0.0548880983447135,-0.35039066318269746,-0.059110968381053466,-0.23894455170304543,-0.20542065551770716
82,-0.24866450560565673,0.7701435800796034,8.446982809771512,-0.05763327323692377,-0.0271348000406361,0.018667326016164845,-0.8592904931917302,-1.5435380498469218,0.5929967247335151,52.34673253752548,4.920662381931195,4.01327580024122,3.8087128328719375,344.3584687449877,3.790092299170575,3.08732043954711,1,0,0,0,0,0,-0.464213230222418,0.10314745515607471,-0.08145052902558997,-0.3348912198581592,-0.07488298050101015,-0.2777685232932158,-0.19741765583529722
83,-0.07699768242753766,0.770023025622504,8.638467392592663,-0.0377971270755137,-0.09408794763374623,0.08284052149083873,-0.3402939478605371,-1.9132551534890365,0.9240071030294366,52.34674808267123,4.9206522246798325,3.8845419415353715,3.8602233444024563,344.4653440391752,3.790092091781341,3.067525977527449,1,0,0,0,0,0,-0.4540307929660554,0.10621212099291658,-0.039450110791054864,-0.3639817023891365,-0.1348325821872144,-0.2584216871959015,-0.1986307232938263
84,0.33897156539326234,0.16351587941540624,9.961910943828892,0.14105405201640253,-0.04256427058454861,-0.16936306427677092,0.42864859903669383,-1.8530663290321565,1.596909809202678,52.34676343794018,4.920642481053459,3.7350715473579075,3.8897536657895166,344.5663489698745,3.790092024151169,3.0225726558946695,1,0,0,0,0,0,-0.44349972553748446,0.06671467919694193,-0.0420567206705035,-0.3952496045236734,-0.03317165905001884,-0.010642144626868183,0.059626986068722736
85,0.14226171415105682,0.6371957359849857,9.073304188911901,-0.06286499570402376,-0.06634958021632262,-0.14612420136577975,0.04184815519009,-2.55835289605125,1.9952905695732857,52.346778729235446,4.920632557478297,3.6977060270372357,3.894857000228479,343.6370229094475,3.7900920020967934,2.998077749149501,1,0,0,0,0,0,-0.42939890648871304,0.08932019571763361,0.044239111730033295,-0.4171885157573386,-0.1940227497173043,-0.22914176670206324,-0.14408693354511984
86,-0.3437712957799717,0.44006010973471,9.159732570977907,0.0348236906013855,0.024000696774442956,-0.12688054160318216,-0.21537564435233703,-2.314279323509157,1.8172946887431602,52.34679652841812,4.920622573906532,3.72186545140916,3.8877344951257404,342.41614300658034,3.7900919949048038,2.9891503272139635,1,0,0,0,0,0,-0.43399296813466437,0.07412891023090613,-0.02464752294874127,-0.3648170640449542,-0.11534511655543694,-0.2139717428800956,-0.024760634139185892
87,-0.20544947082806597,1.2545376438029407,8.358003271061166,-0.21855767172897161,0.03412617691355615,-0.13827112141401096,-0.42862094029387676,-3.016212698149743,1.9223279585015578,52.346812643121865,4.920613523896975,3.5614216364929323,3.8806799276950503,341.719968823083,3.790091992559477,2.97926560922908,1,0,0,0,0,0,-0.41865078756095875,0.09171913003008117,0.09528256122968422,-0.4211100096698175,-0.2513406407899845,-0.3650258899850197,-0.29262540327432074
88,0.5426696360296377,0.4490061602473431,9.316801505338981,-0.03155446363868916,0.063663589360442,-0.08818510678861527,0.35928842015148876,-2.185980544747048,1.0220442440790145,52.346828190287475,4.920604785145748,3.2977012933515693,3.8746742005038235,341.17773765127674,3.7900919917946596,2.9671955618489627,1,0,0,0,0,0,-0.42036547261557716,0.063917909134471,-0.012632907150261132,-0.3971187262149932,-0.07606985609754618,-0.07679261865936701,-0.06179237880458501
89,0.15638202146894953,0.18969737589447572,9.654522355632182,-0.0874424595623762,-0.1489988339269341,-0.0025123630747696107,0.4588419320481151,-1.706272061214836,0.6404926184245647,52.34684354623696,4.920595832315735,3.0346606353231547,3.7727885278844093,341.2944073155581,3.7900919915452507,2.9745540706800297,1,0,0,0,0,0,-0.43838121494024257,0.08110224374235121,-0.07812167120701755,-0.36107110495828304,-0.10197688625379706,-0.05586182456394741,-0.16324251813238017
90,0.14299201224905095,0.1951214760719435,8.90910214956421,-0.053611934173157905,-0.15104328005685086,0.07775918662780763,0.2868845576404975,-1.5932141443852896,0.7002840095416032,52.346858837761516,4.920586808109862,2.7793893060937043,3.615701750413576,341.5948183345466,3.790091991463918,2.994499135798379,1,0,0,0,0,0,-0.44631815552037074,0.082771000998501,-0.10385181976282551,-0.3306372957347111,-0.14704365829280422,-0.1212065614295673,-0.17713726045728542
91,-0.3184468963935969,-0.6850990201055653,9.465986109780987,0.16846855362536745,-0.018408293971336587,-0.028032457344935174,0.008145923032249813,-1.392831237776955,1.0702706214319522,52.346876637021445,4.920578395817035,2.7268168929607026,3.6937691247484663,342.33949374001315,3.790091991437395,2.998752073559341,1,0,0,0,0,0,-0.44402954433754627,0.05131043728677448,-0.15976280492098904,-0.3000561410871542,-0.04657710642277799,-0.050947187134483075,0.15011337559880397
92,-0.4494654704433848,-0.7492678655867335,9.060691579765454,0.13574011409815123,0.061069067105868485,0.0481679056031437,-0.4044365742048733,-1.0253427724638966,0.8537270743536265,52.34689275175122,4.920570187541713,2.7822437213352886,3.911569578100043,343.2065581989157,3.790091991428746,2.991743651572124,1,0,0,0,0,0,-0.4429177515229788,0.048719922762059296,-0.15653220934724543,-0.31523082696949767,-0.030074482086269817,-0.12038169598293433,0.12264711337043942
93,0.16694771017405907,-0.9459393543744484,10.093713649894429,0.10626364218404545,0.16984128894678463,0.039864642439681054,-0.16393748867838231,-1.2140734312362862,0.5728343426757165,52.34691082836715,4.9205617294325155,2.593299573822867,3.9896968306803045,343.54861050402207,3.7900919914259257,2.9647578036391913,1,0,0,0,0,0,-0.42497867304217274,0.03477360518546474,-0.12038058517512595,-0.3553913729333333,-0.017612788777193095,-0.060207644621596425,0.2406206015889094
94,-0.28947777369601885,-0.7912267781828425,9.836326051736147,0.02547996090938133,0.08352349304440777,0.002168534665210546,-0.37883776514243045,-1.4153668660466936,0.5215627948132586,52.34692703654429,4.920552870171168,2.2657379128497546,3.9759933905829015,343.7397597484729,3.7900919914250055,2.926197604782532,1,0,0,0,0,0,-0.425778214322233,0.037419866885795926,-0.11647376734207288,-0.3520885245164786,-0.062108971918960636,-0.09215322200824062,0.1160497924257257
95,0.06017256504212243,-0.48651421106709664,9.527245840048105,0.12300077578782585,0.08386649005013412,-0.004125339609104018,-0.24989985318366703,-1.0435437250854396,-0.2103739840595127,52.3469451446447,4.9205438771619585,2.118726479766958,4.078450845460239,342.8684183456677,3.7900919914247058,2.840348096304931,1,0,0,0,0,0,-0.4227419183863299,0.014677304906230435,-0.1329229957122567,-0.37194721654095875,0.03640840222103206,0.0012090420494551603,0.07643307721074354
96,0.4430580351731613,-0.32880233018271465,9.863252183859625,0.08566426576609126,0.026386606718286368,0.02745442920560362,0.1774847673347334,-1.172851083126544,-0.3188428837575404,52.3469638928712,4.920534521704757,2.0783487352391576,4.255266542347603,341.69905082086495,3.790091991424608,2.725573408805941,1,0,0,0,0,0,-0.4048406127158734,0.0061879549021946235,-0.0804019370333781,-0.42620965106568065,0.022404482591564388,0.024765249752463785,0.038432370599593924
97,0.25099094260604193,-0.6605698665622741,9.970768619499061,0.16973201796320905,0.07874694592352803,-0.01797642477615139,-0.12532835257332425,-1.1920137570245437,-0.353720719580683,52.346980327328765,4.920524727548809,1.9331723288472211,4.1402541043147485,340.9428725523461,3.790091991424576,2.656366632110113,1,0,0,0,0,0,-0.40293097819478624,-0.012065797230593948,-0.13457372350921096,-0.38238539473539385,0.04094283542864995,0.02244660361568542,0.16481446507322733
98,0.8061174376851128,-0.2629678862995645,9.603056555524727,-0.0437205615615755,0.09406857979889185,0.02142444649658532,0.08932861420542115,-1.579218563233762,-0.1107278866474691,52.34699851166805,4.920514469271405,1.724224563058371,3.851348392921367,340.3091648624648,3.7900919914245654,2.6190895641112824,1,0,0,0,0,0,-0.39757443820651345,0.0011671572270536238,-0.08038974242996391,-0.39723425484087965,-0.09965374583404257,-0.0515952408040489,-0.01351193484155043
99,0.2887892669067622,0.1604871186984425,8.992084456531408,-0.0515247935443433,0.04449065769973025,-0.002376603208734805,-0.13298221425371634,-1.3533833984209434,-0.47596524515521255,52.34701475613956,4.920503738396375,1.964640834942474,3.8775766883227485,339.9966107577924,3.7900919914245623,2.5815469999167755,1,0,0,0,0,0,-0.41020494816076486,0.000980491014259072,-0.10608224490964223,-0.3811054246734669,-0.028832941312240817,-0.058787412514263185,-0.1427608513042501
100,0.27662959147362753,0.16847787964911326,9.64118000648026,0.034885770095586875,0.0941824952420566,-0.0077472853727526495,-0.3607495589016523,-1.411011055753149,-0.9113396661638729,52.347030347026795,4.9204928499528995,2.450288191980042,4.099316849839247,339.77275451230474,3.790091991424561,2.5406025637923135,1,0,0,0,0,0,-0.40179265427728483,-0.0072346153261774425,-0.09746368663668847,-0.39846989934342225,0.05257999454465434,-0.06887792239534073,-0.018741917596110946
101,0.4401046591664505,0.6077172488206459,9.577669821316942,-0.026051509935828186,0.05329392922664802,-0.04007062022455884,-0.027767049851023073,-1.4562609914540707,-0.4236171345124826,52.347048247148614,4.920481591119425,2.8421244246313124,4.10274717387723,339.82543898516786,3.7900919914245605,2.517965093547394,1,0,0,0,0,0,-0.40597348028976815,0.0023433059560833067,-0.05608124126452238,-0.42810059910605786,0.017273330251746224,-0.07213543113425028,-0.13845446638929468
102,0.34816721193269445,0.9903112903288143,8.911521963078796,-0.1273884400795342,-0.016074125869163756,0.027282562225483746,0.21271105296013013,-1.3846379668283433,-0.41200071474026695,52.34706439586099,4.920469890939266,3.166135942211484,3.964536322382339,339.95478010881294,3.7900919914245605,2.507323259249713,1,0,0,0,0,0,-0.42057133971191685,0.020433513037740922,-0.063878286303897,-0.40939116444968054,-0.016719581787592475,-0.11942085083120135,-0.3125428610968774
103,-0.02880875757812068,0.15785213455925218,9.25233747332215,-0.08404043001795401,0.011382307055068354,0.053836050057859394,-0.3012069860152641,-1.4740961521507976,0.349129837650999,52.34707995448486,4.920458679320436,3.366845958903062,3.9863605759728173,340.8360288931236,3.7900919914245605,2.5060726125177473,1,0,0,0,0,0,-0.4192044034516624,0.015417059563031809,-0.09494978681971772,-0.3727642519787902,-0.049894015167492846,-0.2059485372085369,-0.06618619121634094
104,-0.06254466565082312,-0.8093537646346752,10.0759519054884,0.0389980253290398,-0.04117622829252729,0.026186021952956322,-0.5359612301026779,-0.9534310520408322,0.17427533163820377,52.34709784373644,4.920447630592502,3.506384713808402,4.111877412855172,341.9287482145294,3.7900919914245605,2.509584601109338,1,0,0,0,0,0,-0.4233713442686418,0.0037125304533297612,-0.16709025082672946,-0.3582778533047624,0.04530510127451368,-0.08339970662231871,0.13117141165182886
105,-0.06579898051817751,-0.7495899997950528,9.527557898321401,0.11034549518714869,-0.034926629247791385,-0.02981751122810227,-0.2053910065034798,-0.8740030859063747,-0.020402196049932236,52.34711398878639,4.92043727188433,3.7167728475998185,4.113675541694504,341.37625415546347,3.7900919914245605,2.5328010576807563,1,0,0,0,0,0,-0.42358210056554085,0.006174991254576123,-0.1585369774829154,-0.36862959212477175,0.08853403700806174,-0.03017646640609267,0.07155290064848407
106,-0.06915508204957353,-0.6417578585609613,10.019392155300636,0.05773905802925577,0.009668956556787726,-0.005113527997388841,-0.2967480499757933,-1.4770332821877175,0.027599220661935618,52.34713207561786,4.92042714323517,3.9694910205463803,4.035791317254235,340.3540843077813,3.7900919914245605,2.568076020134306,1,0,0,0,0,0,-0.4142186212973423,0.02339976781693157,-0.12330735089259998,-0.3617947688621375,0.024105374818046928,-0.13024692873396287,0.11040084747448099
107,0.1285699925706057,-0.4898361052324849,9.986576019494356,0.15529517153323122,0.06265723139638349,0.002795214144402803,-0.25911844406360696,-1.2925665236237653,0.4968467799239622,52.347148287236834,4.920417091289826,4.209937964258717,3.9705619872942974,340.14841601158577,3.7900919914245605,2.5641812042532384,1,0,0,0,0,0,-0.4211622084377884,0.016440046850283194,-0.14125734172078439,-0.35119192205414135,0.0362432743694702,-0.11583248361139797,0.1600617429348954
108,0.8320304223479951,-0.11833540224901462,10.393976710808602,0.09792610860474356,0.008722766101593761,0.041484669468193444,0.6183339787985555,-0.823681647085492,0.32093458059943003,52.34716639649688,4.9204070649182485,4.440778387613295,3.9191888085369726,340.18257336762537,3.7900919914245605,2.5341361478112203,1,0,0,0,0,0,-0.4306714324323332,0.01920002452967874,-0.1343271885852274,-0.383865024739405,0.07181301355107128,0.008173709935406556,0.03371592160057509
109,1.0744479949284678,0.35852480854803603,9.953102397520041,0.016516105218467872,0.13639710191493679,-0.08111898055780956,0.29076929938180307,-1.0163272595616815,-0.2155928816940671,52.34718261567254,4.920397047073203,4.483427188410324,3.8112631045224608,339.01950611540997,3.7900919914245605,2.5575414199584796,1,0,0,0,0,0,-0.4249915314826366,0.017564584491761077,-0.10198503505443864,-0.3892242245051822,0.10056484116633141,-0.0418694054313079,-0.03607933370564175
110,1.3494308975863696,0.4636098460405475,9.281881168316902,-0.0831515489573018,0.27351044109614053,-0.08074762691105222,-0.2187486589764992,-1.4090030618663423,-0.7546367786808565,52.34719819803704,4.920387032070981,4.425978614435084,3.6696852554655344,337.5130947594801,3.7900919914245605,2.6176121452812726,1,0,0,0,0,0,-0.4127377955467772,0.029461456027825485,-0.07938857564191666,-0.3740546696525364,0.06565755149158593,-0.13965324976515914,-0.06205649139740067
111,0.6994484210300236,0.45546654954220134,8.595206442497513,-0.15463953139105047,0.14876562221793788,-0.09057586243096215,-0.25256182157347407,-1.6051613400700973,-1.116114384344396,52.34721356584581,4.920377653727007,4.574174195217616,3.6099116090439707,337.88011061503005,3.7900919914245605,2.6680566543906488,1,0,0,0,0,0,-0.42238411382159946,0.05453509857236448,-0.09176707136778792,-0.35137717928815176,0.06199320080900653,-0.14197704863449176,-0.21312875356840144
112,0.7407302849780442,0.5783431077902365,8.430248079091093,-0.1828562715956428,0.08131795722140055,-0.01633449058614933,-0.16484813460883194,-1.4904486784458444,-1.168796705235304,52.34722886136602,4.920368805506029,4.8396806033735755,3.5999412392260366,338.78389243009553,3.7900919914245605,2.7086625169077796,0,1,0,0,0,0,-0.43360983583042534,0.07092711044174654,-0.09742151036100716,-0.34722087845424665,0.051150785639344463,-0.16769527221977903,-0.2662650764386678
113,0.5900170181597377,0.18950552637995727,9.045779522730022,0.0004959244140976815,0.25430565099388924,-0.0716638102633661,0.37078999925347267,-2.8489568300001675,0.3554251995480917,52.34724666197217,4.920361723309047,4.999515769868038,3.5966086826809365,341.7169242416743,3.7900919914245605,2.7202016683734875,0,1,0,0,0,0,-0.41212554711546806,0.06211447747688679,-0.007566434925661544,-0.3724565727216239,-0.05178690615495943,-0.22836553681050592,0.049319266786864865
114,0.05479966153339244,0.0696014477124078,11.09594072093988,0.09044980742573247,0.2467609169731835,-0.22621757253641875,1.1177806702435822,-2.4550156189888375,1.3620562078346403,52.347262777155514,4.920355865631327,5.094346408147738,3.592977698954753,345.2145476525,3.7900919914245605,2.714237887963659,0,1,0,0,0,0,-0.43935705574662465,0.04362176330335704,-0.05832829465525649,-0.36668802442490755,0.026998778919194385,-0.03346714254249307,0.16875852345207878
115,0.0012389108839106489,0.17334757146546775,10.663020662203962,0.14313543456646827,0.26330992152841987,-0.29752834780301357,1.6662345046744529,-1.8409799509272766,1.1575977475886168,52.34728085392427,4.920354866192682,5.128533608621689,3.740959434174479,221.99173109017747,3.7900919914245605,2.7065152442055735,0,1,0,0,0,0,-0.0652103208909148,-0.016189997682247916,0.04653155473290541,-0.15495096426910565,0.20102005388880106,0.11138733987549815,0.06472796285728696
116,-0.005714282710025925,-1.2668534358421881,10.63783940597502,0.3511261711713837,0.13073712806853605,-0.3408277968151067,2.0761213976253243,0.07828120115253179,0.38568332769143177,52.34729706215289,4.920357075812221,5.134903651713258,3.9761170056924464,62.88238435107894,3.7900919914245605,2.699445532318024,0,1,0,0,0,0,0.39847551150968563,-0.0850767973826404,-0.0009359875265576849,0.1718585243678841,0.5280789835041549,0.43352599056864216,0.21213807059008705
117,-0.6344094570046762,-1.9593455002950737,10.526376987299395,0.4266061951102567,-0.07901017372431471,-0.37470141397333734,1.586262007786463,0.7614410752404357,-0.04120988259525438,52.3473126408291,4.920368301741904,4.883301671640931,4.093990804920616,33.086415247552694,3.7900919914245605,2.6617769094287445,0,1,0,0,0,0,0.4727240758582859,-0.07975988308454846,-0.07941015465814975,0.2386717977645341,0.5638140843796473,0.42267506836100727,0.23778740319079572
118,-0.6480141801622048,-1.5627356484804107,10.546906054064014,0.321318278153552,-0.12414614918297938,-0.143212214232541,1.285411371269694,1.0782271144179827,-0.11851083769571955,52.347328007395205,4.920385076635008,4.495536219786277,4.137245378777698,40.56216380349746,3.7900919914245605,2.6045677821963817,1,0,0,0,0,0,0.44287453313496866,-0.07135067943833986,-0.09372175790069422,0.22059191843297954,0.46367263471831743,0.27400476465357326,0.13486221021379913
119,-0.9966413766943316,-1.1463000984356824,10.100747736159583,0.18481597569633604,-0.17688792142994103,-0.054855122855792124,1.3428428880544567,1.1384783037232091,-0.3831037703200234,52.34734077305518,4.920409422997966,4.212267834765505,4.104134080583745,52.60322640811698,3.7900919914245605,2.5610721672517482,1,0,0,0,0,0,0.39956533233420727,-0.06458701673981442,-0.09974529977828962,0.2013088735443846,0.42660929933794883,0.23104809021309058,-0.04932558657398664
120,-0.41217446695212356,-1.0231636503341812,10.133320094951316,0.11261855152398237,-0.09742005708084626,-0.011934956990981224,1.1211776838518004,0.4386656534304547,0.31344100981000356,52.34735013297091,4.9204385187459305,3.994726755193173,4.033289079781001,65.24974130541919,3.7900919914245605,2.5282827209044925,1,0,0,0,0,0,0.38070063995583614,-0.06267018834787758,-0.03512416200767803,0.1517427967846704,0.28403821427732917,0.10264775534479596,0.020722845287327242
121,-0.2900990925885033,-0.8685640072659829,10.219655041717939,0.05176003627307826,-0.10057587460298408,0.09970715915673997,0.9556916598947285,0.03240466455049551,0.7571210292798578,52.34735581597468,4.9204711051143315,3.8322645655736456,4.0257671639719925,72.24800636946806,3.7900919914245605,2.5118173805400645,1,0,0,0,0,0,0.36755399621783663,-0.05393667325937951,-0.008617853562874965,0.1338580379933733,0.17917581575185132,0.014102485093297333,0.007408151953278133
122,0.09554122329450748,-0.5112772836222748,10.11237242377393,-0.05105759927103145,-0.025603771660379054,0.0215922882180295,0.6421682435351843,0.1749770883757923,0.36865414908460575,52.34736026014565,4.920505173143291,3.6945872091205882,4.057761818439903,77.63602081950364,3.7900919914245605,2.5046578109445057,1,0,0,0,0,0,0.3539857330480252,-0.06279964755563758,0.01047611819611535,0.09603996931740699,0.21903251523805656,0.032738706790703793,-0.07197820739768393
123,0.109696110791475,-0.41635924519375866,9.801073012942272,-0.04500073215314586,0.006187286156204133,0.038697485186988415,0.7514668058438367,0.14788045545392914,-0.009241680047788803,52.3473642869265,4.920540370882095,3.4640038625297396,4.038691120835631,77.89269013165726,3.7900919914245605,2.501767976204917,1,0,0,0,0,0,0.3554211110242916,-0.06566624523452254,0.007663532269788909,0.09986599226362249,0.23058087555941598,0.049028243652161886,-0.10163418423586212
124,0.41687084796725465,-0.5041893938227215,9.74309925852557,0.015459659916499668,0.06798776089515236,0.06037262343900718,0.6197442451608013,0.2137623631071166,-0.46832241503628613,52.34736817307941,4.920575627421465,3.1818873154437557,3.987002900764578,76.72628156997837,3.7900919914245605,2.500653743629925,1,0,0,0,0,0,0.3625734776396937,-0.07503443462366462,-0.012964329047361152,0.11182312429588198,0.2528084010279216,0.07117984642336125,-0.042274616194367884
125,0.8998822341773578,-0.47189451507465996,10.076927186350332,0.0730810998852259,0.13908861643048592,0.03568755206314657,1.002402692947523,0.01018167098760614,-0.07822389239791455,52.347372011851654,4.920609949999859,2.9800659024707756,3.9867939435582636,74.55302338224381,3.7900919914245605,2.5002370214816025,1,0,0,0,0,0,0.38065450616020247,-0.08472220279151979,0.030407880061479348,0.08295719446162683,0.2313444612482277,0.11665899647019187,0.030296016981215656
126,0.8951260251165984,-0.5409197877682107,10.302491460973705,0.032012390856280215,0.10341563815270566,-0.0032059626342395564,1.0362899582557505,-0.191224626093575,0.2269495621250377,52.347378364101864,4.9206436433317595,2.8249421395995618,4.018871206351284,72.12094872473999,3.7900919914245605,2.5000847008529687,1,0,0,0,0,0,0.39402248305131865,-0.08353125155418328,0.05539257806279033,0.07294395578378988,0.1972142769284643,0.11933590947160998,0.025799880611133818
127,0.4427801874082418,-0.37819920422518316,10.007571256834016,-0.045445062839863284,-0.0013860505363905429,-0.030956223762670654,1.0398247520419528,-0.15284127661353472,0.23134442816538855,52.347383033756735,4.92067680901181,2.6801206840602503,4.037327476368051,70.99449600484719,3.7900919914245605,2.5000299669576513,1,0,0,0,0,0,0.3904710877952209,-0.0770133441930299,0.0536059190566986,0.07790121745371598,0.1865705669260278,0.11780740436107646,-0.10792046794365305
128,0.37895478070906474,-0.15632354570991885,9.56486985767507,-0.038188663334981526,0.0500394985720157,-0.03349130388131905,0.8700746727256918,-0.1726378770908726,0.04128390914339117,52.34738966594964,4.920709480912611,2.537468411711106,4.045287006942941,70.24246097700215,3.7900919914245605,2.500010495635005,1,0,0,0,0,0,0.39321530682005734,-0.08262732397713436,0.05766284385965257,0.08181009636931784,0.19683826299482163,0.08214571017014381,-0.12994189281433943
129,0.5548223631166457,-0.3913844709322687,9.789749413182669,0.011254839578443178,0.10316384474471675,-0.04076677303407851,1.0098129051305338,-0.26858326129357424,-0.16057816740485908,52.34739695936493,4.920741670327603,2.3391337061789943,4.04833771288415,70.05030869662649,3.7900919914245605,2.500003716133275,1,0,0,0,0,0,0.40196800202440275,-0.0911401180362444,0.055568906560762826,0.079224549897857,0.21682259476070395,0.13168658733208377,-0.0435626219898593
130,0.7154274310561217,-0.45200332069207216,9.802423235262339,0.03521346745114523,0.08718627115612357,-0.04070066592147704,1.2343170066802576,-0.17038823255932922,-0.02136176807496243,52.347401946119085,4.920773698877334,2.1108225583119298,4.049433816523104,70.00977448365518,3.7900919914245605,2.500001201507034,1,0,0,0,0,0,0.40332449513000596,-0.09486808566791664,0.05613713362980228,0.07011637318447243,0.2086083146715473,0.17683928003309093,-0.04427651444058587
131,0.7386789938746167,-0.057230735226346696,9.757990025748752,-0.07153124357154478,0.013225735430665367,-0.03454281982796466,1.1807220867504797,-0.3727807356062557,0.12947040016292796,52.347408685149745,4.920805673793091,1.9063641520490913,4.049811931982861,70.84745802666717,3.7900919914245605,2.5000003884734605,1,0,0,0,0,0,0.40169080562637377,-0.08436769852523815,0.09476115473765569,0.04775106340198664,0.1399628882652524,0.12518039716128332,-0.16996270845122255
132,0.5708253451005291,0.14079732037556475,9.279532971649049,-0.05681650977746995,-0.054067098684267983,0.020560917702216262,0.9402967479326768,-0.20647830506007833,-0.29459750552463326,52.347416014561034,4.920837630826781,1.716829845510348,4.049938608566852,71.93098448301377,3.7900919914245605,2.5000001256019524,1,0,0,0,0,0,0.3906801981540775,-0.08167218762301369,0.062111846360932164,0.0655141993555498,0.15296709546231113,0.1118206348875786,-0.2437651252233273
133,1.1146647695346314,-0.07962916034878648,9.559884210552276,0.03689450267442321,0.09510120493692831,-0.0003246337925925588,0.8082163031222476,-0.12620342956925834,-0.3130455206452921,52.34742101344303,4.920869581898423,1.5197187821553102,4.065213431283477,72.47966793975985,3.7900919914245605,2.5000000406098537,1,0,0,0,0,0,0.3994230933915463,-0.10264155017059388,0.06257399331165331,0.05512236941620047,0.18568971487738176,0.1386586831474004,-0.06703159934467691
134,0.622561720661313,-0.11934512185793292,9.45950677816288,0.00221233154715781,0.006759294399449972,0.033509035989184144,0.533370924534353,-0.08789225211751006,-0.3754604052453743,52.34742775655983,4.920901848837475,1.3174798120224434,4.089216629056031,72.87239235163585,3.7900919914245605,2.5000000131300526,1,0,0,0,0,0,0.3937512368542282,-0.09421612585671592,0.04355441544613461,0.07100526515940293,0.15501647528632928,0.10601229435298579,-0.1376705997965493
135,0.6763019920794167,0.01790016794300875,9.132247042432908,0.0045491851406217615,0.034496746002989256,0.05084024122870322,0.6630478291029439,-0.2656154162669726,-0.202793750802506,52.347432557906274,4.92093390323445,1.1823479032486277,4.099213708618189,72.34844041350745,3.7900919914245605,2.5000000042452326,1,0,0,0,0,0,0.4005170515818435,-0.09633296027033028,0.07225600003871882,0.058307821055202075,0.12701554299454626,0.08546701738156214,-0.1568152704133532
136,0.7900219402984597,-0.19157057249270015,9.701180393980934,-0.013294371564966434,0.014292842334093843,0.056877370249386223,0.6862054186938645,-0.3675098072737407,0.16150915628747292,52.34743923446898,4.920965886767918,1.083523055349496,4.100438690414636,71.5678459498056,3.7900919914245605,2.5000000013725763,1,0,0,0,0,0,0.4068796886048278,-0.09654377278865046,0.07769525048491438,0.056965847335148444,0.0926178611436987,0.08939095672478482,-0.08669707314543929
137,0.2413439016134843,-0.06061671535668639,9.489205367958185,-0.1285446860598059,-0.007643047185996652,-0.02102450844190993,0.5322453342077362,-0.5027624851276522,0.12160763538547595,52.34744654283344,4.920997210964411,0.9194680177333443,4.102855868663875,70.51088463430774,3.7900919914245605,2.5000000004437837,1,0,0,0,0,0,0.4086043327710026,-0.095327249693299,0.09160686154809453,0.05941979185545799,0.08483999996791393,0.06331619830781156,-0.1984315867008154
138,0.537245008771009,-0.20883798667724504,9.801380340055173,0.023305213536829905,0.04700475366280851,0.0074889876260745974,0.5933201788171797,-0.5339682728047839,0.19928374566203141,52.34745406406585,4.92102831533182,0.7178754121571407,4.106683409856729,69.38041706369428,3.7900919914245605,2.500000000143485,1,0,0,0,0,0,0.41746018474077784,-0.10824460535443257,0.07673035092843597,0.06673884130898092,0.09773216559908975,0.09883554927096368,-0.04466345748254012
139,0.20811505939814834,-0.33736400715114856,9.82603920695036,0.04554280706787755,-0.0804870793850119,0.052379264865828876,0.4842438574158503,-0.45432603711390845,0.16854218415485064,52.34746165701818,4.921059028550954,0.5769073960323481,4.113761191299229,68.8224860103827,3.7900919914245605,2.500000000046392,1,0,0,0,0,0,0.4133726983196996,-0.1002667585168091,0.04820105962720088,0.0849792664002911,0.0765087292373043,0.1019706158318897,-0.08222079849608448
140,0.14018908221830773,-0.16332419840364265,9.778838315156099,0.05465741662199165,-0.06128603785889274,-0.007591032616226186,0.5458444130701874,-0.20141220252340475,0.14383375748029112,52.347469274134525,4.921089611357613,0.47109864797657836,4.122591608898114,68.42800724176635,3.7900919914245605,2.5000000000149996,1,0,0,0,0,0,0.4091704957571114,-0.11045029137863578,0.043579085165483256,0.08012258566067687,0.11887852443954547,0.14064375140911217,-0.1121205319198763
141,0.07933935269578662,-0.06040643552645296,9.512065473803444,0.07955880592341785,0.058588456119122216,-0.004825109613282431,-0.16134202688451238,-0.21009927189456168,-0.13309930742924156,52.34747689939226,4.921119832828327,0.3318973493270869,4.142316162328356,68.25307534466887,3.7900919914245605,2.50000000000485,1,0,0,0,0,0,0.4130913996865397,-0.11924825549109612,0.03527764015501141,0.09566517242580325,0.12664255436321722,0.04796702786616142,-0.05672477373124303
142,0.10305887235099151,-0.20697507354352646,9.78801928888754,0.07570136132758705,-0.014446337028791993,0.01400783031235226,0.3022795325992129,-0.3873907307770017,0.10687912776775046,52.34748452739302,4.921149933826275,0.17229149199806937,4.168158084818579,68.13729326276587,3.7900919914245605,2.500000000001568,1,0,0,0,0,0,0.4188638094493728,-0.11447442164496029,0.05618523447559425,0.07715725052333346,0.0923326481613424,0.1099092984088221,-0.06699031706794659
143,-0.003109776736808817,-0.15737619884371254,9.892707403418424,-0.03920447955848669,-0.04704507790503352,0.035315308422420075,0.7324666399048899,-0.445569980915877,0.25276505317008524,52.347492156317955,4.921179358947057,0.13724051036201868,4.130606196155014,68.4753949710594,3.7900919914245605,2.500000000000507,1,0,0,0,0,0,0.41591024353424927,-0.10680506132698375,0.07097421351600709,0.07149346166977469,0.06045992679575176,0.10887288300829066,-0.1479738642304195
144,0.07537944624437984,-0.19920310528091353,9.587608083963222,0.0055312714291468335,0.04445553274360443,-0.06227405210151779,0.20134788513426727,-0.24955048276182393,-0.41905456637157923,52.34749978555427,4.921208558724103,0.1703584102564606,4.056108029075685,68.94091340112455,3.7900919914245605,2.500000000000164,1,0,0,0,0,0,0.4111253515337556,-0.11951559731020721,0.0297036038847931,0.09499820623957883,0.14884917279454327,0.12515986986143582,-0.10347600715305641
145,0.30133564512051714,0.05287330293868539,9.59777682989946,0.013208856506157905,0.0631823942765407,-0.06173231972456672,0.4786076211576599,-0.34556830603924915,-0.3543201945305276,52.347507414895496,4.921238001224658,0.1614329613246751,4.046852797234623,68.99294032666876,3.7900919914245605,2.500000000000053,1,0,0,0,0,0,0.41380896526583844,-0.11753695289580227,0.06054847976665122,0.07282789021211604,0.13215208368882878,0.14007483682761296,-0.13827752388754572
146,0.20767843420035786,-0.2947820194722732,9.971488027196184,0.02909865980735659,-0.004406121459755774,-0.008367764215547031,0.07375725908282821,-0.29619974840476043,-0.45166810718305794,52.347515044272065,4.921267524651492,0.12510310075701317,4.078152818591591,68.92555761458839,3.7900919914245605,2.500000000000017,1,0,0,0,0,0,0.4136341299480284,-0.11380122478098023,0.026280802060279263,0.09554700740506365,0.1198316740373493,0.1109768105801303,-0.058948549629763036
147,0.32615463190241994,-0.1321927981341405,9.662142821626409,0.00823626629536714,0.06814171066386777,0.005860082769172494,0.5814767885654861,-0.4557611006665412,-0.28948409341329195,52.347520144219,4.921297075059901,0.0560369160690667,4.096909490099983,69.30995555445638,3.7900919914245605,2.5000000000000053,1,0,0,0,0,0,0.41963090668393066,-0.11713412360353691,0.07064771687036735,0.06618072646288142,0.1044854423090714,0.12395851699767421,-0.10550798751572037
148,0.024110625743692715,0.06123702434650394,9.442712456874327,-0.023784475363431215,-0.026340482838277515,-0.0047355562305966496,0.6161887922539234,-0.5670554773795895,0.08013940278691517,52.347526921386795,4.921326634464218,-0.028596329003127974,4.1051060554152405,69.82444272032971,3.7900919914245605,2.5000000000000018,1,0,0,0,0,0,0.41396118522193737,-0.10903384466751208,0.08054626229840595,0.06500727274496067,0.061896691387365387,0.10418066822447576,-0.19049483555319463
149,0.3787440436066168,0.1411557169182062,9.545455179105662,-0.05148712362851535,0.03871851891128905,-0.06422366902369203,0.4370234500593,-0.5077792659638644,-0.3004923613031729,52.347534263647326,4.9213565147230645,-0.07869087776948501,4.13111818149719,70.4409748078586,3.7900919914245605,2.5000000000000004,1,0,0,0,0,0,0.41666203467636154,-0.11789294000736424,0.08913503192312529,0.0485988812773569,0.10617327717567702,0.12454290266345527,-0.17340885347019305
150,0.38038987300988797,-0.0166625792717581,10.29048049299201,-0.10244374473318085,-0.06992669451677733,0.04761279968580538,0.11999796657533296,-0.6248979980578242,0.08303435687449556,52.34754179630008,4.9213868198130095,-0.10917189017847517,4.1682431395289035,71.08400094291123,3.7900919914245605,2.5,1,0,0,0,0,0,0.4156525261244544,-0.10273982230982621,0.08781842447663299,0.05425495450344263,0.012344277493518633,0.041227844048781936,-0.1263248267438421
151,0.4347931724936934,-0.4311440658830973,10.629741283973612,-0.015268424970792935,-0.0037075522774872305,0.011960102924200827,0.3385682472071919,-0.3789259285406484,-0.17390888751347472,52.34754939310017,4.921417584400809,-0.13111762421115553,4.207746141869722,71.4385144903148,3.7900919914245605,2.5,1,0,0,0,0,0,0.4167389585769728,-0.12048104998929857,0.05642338130163057,0.057511226471723215,0.1027296348890177,0.14809574998335265,-0.00894394327157701
152,-0.03502341218391847,-0.3406527516400184,10.299312856551639,-0.08958382909954636,-0.09041931865992764,0.03928892059268723,0.20793891782578905,-0.2170127862012343,-0.24339219033268805,52.34755448207136,4.921448502189469,-0.14989861076020294,4.247697891795057,71.71085816808592,3.7900919914245605,2.5,1,0,0,0,0,0,0.40818385249496264,-0.10951590254002251,0.04784762824084576,0.0649695599429828,0.08137282246410668,0.1040500041970382,-0.13238997641987882
153,0.25604661086718744,-0.5230434676559446,10.34885930576015,-0.011738870399519014,0.03556620850726777,0.021394319897111696,-0.024598251145399014,-0.35377047764122593,-0.060486172054049436,52.347561255541194,4.921478835346301,-0.09913814005375934,4.275016830423824,71.5240613343325,3.7900919914245605,2.5,1,0,0,0,0,0,0.418962850843022,-0.12224712643546574,0.0598289994547025,0.06105245394479737,0.09005070576460429,0.07517342195385543,0.02341082996236437
154,0.5917679812573372,-0.10572517249734958,10.0113464058679,-0.02870820514399627,0.1259350217885421,0.015696480309054735,-0.5010601832614612,-0.4280425751605004,5.692781239712702e-05,52.347568596555796,4.92150929143665,-0.01136141579307974,4.295036937128553,71.2087932523205,3.7900919914245605,2.5,1,0,0,0,0,0,0.42377436721158507,-0.12212514279980122,0.09182560642384256,0.043556113727350194,0.067020433413098,0.0019967053917616193,-0.01636515852199366
155,0.532703680319166,0.2419922039425258,9.584025298886425,-0.11913060035321467,0.15730431016542007,0.005546054078516292,-0.8665307801139353,-0.7839109435026062,0.2856939449414464,52.347576128788766,4.921540106369389,0.07625003520935644,4.327138460339663,70.16706213479353,3.7900919914245605,2.5,1,0,0,0,0,0,0.4326492962919018,-0.11456735272456131,0.14251658036073092,0.029139049130441203,0.007913241663332892,-0.09892997756878832,-0.09106180594840632
156,0.16343926332176661,0.46292322841094247,9.359629943036042,-0.16916602355443983,0.034176238404387466,0.011461294267726782,-0.6109135630905029,-1.1268294363262914,0.6694465314144438,52.34758372544742,4.921571040943522,0.16111878416915199,4.366787304049218,68.92203675107346,3.7900919914245605,2.5,1,0,0,0,0,0,0.4355463232048381,-0.10021848065345061,0.17446146698759232,0.020365926948474482,-0.042195251214543913,-0.1096359001644745,-0.20325046188332202
157,-0.019425979927010395,1.1592089696101913,8.725543509350947,-0.33900503208643035,-0.12241322972693755,0.056690153803731096,-0.4229650147931253,-1.3479949441835337,0.5773929594433186,52.34759134381252,4.921601697551997,0.13940491891491832,4.379310446136405,68.33139229114101,3.7900919914245605,2.5,1,0,0,0,0,0,0.43148481188328647,-0.07805603205655591,0.21901294615488917,-0.00030011668064152655,-0.10826946626426219,-0.16680563214360775,-0.4813349689939601
158,0.28785209700300857,1.2610393109888163,9.01015440409612,-0.2313880319102656,-0.09257243810362473,-0.05302237787750822,0.45019353900287795,-2.0258392469246616,1.2263824646628503,52.34759896949099,4.9216322614841355,0.0608070022190539,4.375617423722691,67.92976123094536,3.7900919914245605,2.5,1,0,0,0,0,0,0.44815788837104886,-0.08878692735486522,0.2863735119197184,-0.04008058702786635,-0.11832447140100909,-0.07514202052156593,-0.3856648440058414
159,0.4305674668396027,1.009715642443369,9.33725960573506,-0.15340527491749875,-0.06657916809208081,-0.030174957994387575,0.8600916910241674,-1.8353835754355448,1.0048939034630906,52.347606597633494,4.921662476661909,0.011614159693554768,4.3572266868879455,68.52549990280457,3.7900919914245605,2.5,1,0,0,0,0,0,0.4448201105717743,-0.0950197374420994,0.2465127689549307,-0.025527063752330936,-0.06885239779445995,0.007455949375629688,-0.3119716889793176
160,0.2558955604517318,0.5381301584011808,9.234936391384986,0.035187835366461556,0.026619521196611512,-0.03140363239462209,0.7279532367469138,-1.4561553159047702,0.9161659323351181,52.34761675604774,4.921692575561731,-0.017751903352100005,4.331726938652943,69.4001103801453,3.7900919914245605,2.5,1,0,0,0,0,0,0.4378375992020177,-0.1128756607371511,0.1778367120655596,0.013421411856700675,0.003377647774625363,0.04661890070732167,-0.142296846911578
161,-0.32607202116172607,0.6414690073700762,8.502207721917308,0.01481590750109964,0.05739880648309727,0.024467756402959624,-0.0019100390541838541,-0.8149300556721722,0.3955473460820035,52.347625237524845,4.9217229535486124,-0.12887780378539063,4.351593627695559,70.11470427627896,3.7900919914245605,2.5,1,0,0,0,0,0,0.42020619522832536,-0.11545401221581734,0.11733375161807671,0.0515619149510822,0.041419630600940116,-0.02692176228845411,-0.23287407515018996
162,-0.48668414816471117,0.5214279500537926,8.180647085219718,-0.06479504824449327,0.05750895110420077,-0.0011029074426305713,0.03862682248046453,-0.07641733142174778,-0.21951321070035978,52.347630624563244,4.9217534245857175,-0.285212128973345,4.3981250985004285,70.77885028608799,3.7900919914245605,2.5,1,0,0,0,0,0,0.4079323734725765,-0.12404902616531026,0.08035452035044721,0.052839275058141684,0.13056570012068636,0.05446850827627733,-0.3185922491403879
163,-1.0531495875631087,0.45116839735257636,8.327480779398764,-0.06765560526565466,0.060096785572048846,0.07183009883944809,-0.482632480691992,-0.06179470907384777,0.18756511485165933,52.347637498458504,4.921784244501844,-0.323878024869931,4.428309381254469,70.8801781517913,3.7900919914245605,2.5,1,0,0,0,0,0,0.4032738854629197,-0.12056591655731409,0.06356386838991865,0.08350042871932728,0.07520626144091595,-0.0804881558060336,-0.2547644768627395
164,-0.9917703963268056,0.2656206713349495,8.985206830545739,-0.04931423067531137,-0.01353038623057689,0.06179117726408954,-0.2662003484014106,-0.2242080821955867,-0.08974785988831946,52.34764487330865,4.921815180737484,-0.29628456305081663,4.446894396868571,70.82309144629238,3.7900919914245605,2.5,0,0,0,1,0,0,0.40739934896203506,-0.11747901940487789,0.06410485533454488,0.07323709075529133,0.09449937828845738,-0.0027633260439885884,-0.2294761721839296
165,-0.5848194769369188,0.3241074158432529,9.453454822267476,-0.022909046853041796,0.10782214880009156,-0.017031002219356862,-0.4726656045672275,-0.06436896421846519,-0.3169440977750667,52.347652416941564,4.921846791465555,-0.27308971966676177,4.564255891907043,70.25357390721682,3.7900919914245605,2.5,0,0,0,1,0,0,0.4164683494713603,-0.13469776859215996,0.07994128111403546,0.046572180578100995,0.16132915044142654,0.022106767101670925,-0.1411895866443135
166,-0.4136216681387124,0.4121123524941465,9.091519304316588,-0.12272208614796076,0.02436314295668561,0.04535548292028943,-0.4219151923224592,-0.1516751011819797,-0.4974942105171832,52.34766254688266,4.92187862707568,-0.2570016120227192,4.739355142445023,69.54189540788809,3.7900919914245605,2.5,0,0,0,1,0,0,0.4272392823053863,-0.11987361334563022,0.12563560271734062,0.009369011057458318,0.12246345110953229,-0.006239430199368495,-0.25972650475302034
167,-0.45575731307540335,0.12524975309205105,9.36579001372059,0.09966141240537749,0.08072763917414674,-0.019864239234936673,-0.536524441310211,-0.16283883754956985,-0.5364640234537836,52.34767354820808,4.921912762650052,-0.30528155277763924,4.929328694092582,68.17439019974216,3.7900919914245605,2.5,0,0,0,1,0,0,0.440656000598117,-0.14208996947654545,0.1115999448689783,0.006942942733155299,0.20957181243104708,0.06241583548085097,-0.05674577622323941
168,-0.009777097854698658,-0.17739372319470215,9.192323112718734,0.03601259958610151,0.002378953012053736,0.0034597338473943418,0.38181729834719924,0.11495416652686569,-0.6998784988625282,52.34768484312211,4.921948300764336,-0.38752443352087573,5.12308335225231,66.62383953487839,3.7900919914245605,2.5,0,0,0,1,0,0,0.4546807897173443,-0.13919700962056442,0.14709523444182776,-0.04682740124961105,0.23206747970940145,0.19748022959096168,-0.14611371009567603
169,-0.7961024524100127,0.4934788574004132,9.029422483879951,-0.13377845771559294,-0.11874032157417863,0.03985920135894399,-0.017409557124393793,-0.8401664441778895,-0.3924303226796544,52.34769623695262,4.921984624353693,-0.4427339671139664,5.277160685270612,67.16597714173298,3.7900919914245605,2.5,0,0,0,1,0,0,0.46257237402751344,-0.11133240540363896,0.23829990883046356,-0.07326626769902173,0.08613145450564313,-0.025146682961394648,-0.32369018930156473
170,-1.0388985168423945,0.08778098744031043,9.228531057312676,0.039366293506467004,-0.02788826808457276,-0.020252649585516584,-0.2607998059335153,-0.4583910799177301,-0.6064197928810597,52.347705134668736,4.922021845538173,-0.4810304314644984,5.4081179253247775,68.30396723900992,3.7900919914245605,2.5,0,0,0,1,0,0,0.4570545924429691,-0.13882590772673678,0.17063642564726944,-0.04822394238808926,0.21951001133154924,0.06767765256775807,-0.12820025325041914
171,-0.42350816449006945,-0.660802410329772,9.960069005857886,0.18808878393518896,-0.03432064554237615,-0.07600426685699407,0.38384147633303717,-0.35325432051438116,0.28541791083463786,52.34771572083035,4.922060637410066,-0.47769838495385214,5.587456946681861,69.388243803706,3.7900919914245605,2.5,0,0,0,1,0,0,0.47017546613941075,-0.15260544573889678,0.19862983701543538,-0.09911247149352778,0.2261693718091076,0.20742425059008526,0.08926240305014992
172,0.2670395288312114,-1.393081949350869,10.632047151917929,0.40770446382102665,-0.1228662081983802,-0.06911663036381918,0.8984671421135135,0.2809552918705887,0.25887802939118965,52.34772434642498,4.922100270818975,-0.4532847860150141,5.796516544574782,70.44632525732031,3.7900919914245605,2.5,1,0,0,0,0,0,0.4711486653356963,-0.1659767161085959,0.1551676478679593,-0.12407462661598333,0.32154418674399776,0.40555864985360185,0.2677767225081811
173,0.6214022597900388,-1.5723512311803896,10.540904595843747,0.25961693431557653,-0.07104610854842519,-0.09324964664115745,0.7666107449216228,0.4969370854097407,0.10700353363385798,52.347732311461314,4.922140502659369,-0.42167856510622814,5.906954072478414,70.83619312391662,3.7900919914245605,2.5,1,0,0,0,0,0,0.4784557571078668,-0.166128095470288,0.1882600400424096,-0.15745545757049223,0.3173823862431014,0.3676810612609305,0.23101077300636347
174,1.3656557899448654,-1.5148731872395544,10.276732031365245,0.1298137445591486,-0.04704235591538036,0.030789294077087234,0.9286100328611915,0.583615518411062,0.05117959236936251,52.347742583382534,4.9221812518776025,-0.38773195500824303,5.958245052060852,71.03736422214905,3.7900919914245605,2.5,1,0,0,0,0,0,0.4857165471341222,-0.15595488914610736,0.22687499478376055,-0.19045211140917073,0.264217954259547,0.32673506108916,0.17007776132643015
175,1.7564280269006431,-1.552261675244413,10.130086279742505,0.09539923352803562,0.07483491317231045,-0.04259477954640989,0.4165396753386428,-0.032655113968263816,0.11266008617521917,52.34775110310264,4.922221855739212,-0.39639083283244114,5.932906656937477,71.23418992938502,3.7900919914245605,2.5,1,0,0,0,0,0,0.5042349990684867,-0.15969745052134687,0.2792638345565966,-0.20930245990553092,0.22393065674217677,0.2495914659168421,0.24947720364434076
176,2.0890106149358094,-1.665456626329003,10.009706300230334,0.1230149823400376,0.15299045893288143,-0.012151175377041537,0.127741209466597,-0.16197319923877082,-0.1799504249323704,52.34776156190906,4.922262411137571,-0.4280350461771987,5.868404490462747,71.43327547193843,3.7900919914245605,2.5,1,0,0,0,0,0,0.5095113668994793,-0.1609305682933782,0.2671498347009747,-0.19841943008090876,0.2204073211911539,0.2377149156384757,0.3034332377442512
177,1.4509229843165656,-1.3737143757827037,9.840145274407854,0.018232283293707574,0.10261692140659018,0.0018772030856465307,-0.41448322323446524,-0.45820560550584455,-0.6956120284901108,52.34777014459491,4.922303586088252,-0.5870024245364412,5.841036636518488,71.15511013311125,3.7900919914245605,2.5,1,0,0,0,0,0,0.5077030470721734,-0.14880356359013175,0.2675423948335207,-0.1800613126914364,0.18686856993228776,0.1479515310616542,0.1717307187853379
178,0.4359600877017977,-0.8281973728656896,9.469892744102832,-0.03001927962748415,-0.0664877122136838,0.04704141184058393,-0.11157241319981742,-0.7422652787422479,-0.8703823411706668,52.34777809517433,4.922345285458656,-0.8125100402862302,5.838249783679494,70.74179573718662,3.7900919914245605,2.5,1,0,0,0,0,0,0.4976603371718493,-0.13310798026383333,0.27099241004783736,-0.16621487473964855,0.15280920455013552,0.13078014433564877,-0.046066083076646246
179,0.6395682381190053,0.07361054896792885,9.601643340036983,-0.10137812781878328,-0.1263573025879886,0.02929508321562809,0.3452433978368652,-1.4126977334264716,-0.41363525997924844,52.34778583278314,4.922386841820265,-0.9413184174716362,5.800824926183183,71.18140433968516,3.7900919914245605,2.5,1,0,0,0,0,0,0.5010170834903075,-0.12217328980755972,0.3605632197258131,-0.2131962724531701,0.059959044388493206,0.08936496224167316,-0.1864180241507516
180,0.13941274556200678,0.43632560196148956,9.82883514564706,-0.07178031131764256,-0.03920204988613317,0.006675585422510431,-0.022742021730535578,-0.9466923541735311,-0.8482243791349566,52.34779349863745,4.922428350501412,-1.0135679261635115,5.741459353913951,71.8649671481178,3.7900919914245605,2.5,1,0,0,0,0,0,0.47974071887483405,-0.1361655300148785,0.2866891524194413,-0.16295662924169074,0.15397077530072578,0.08733065136950544,-0.1797379115105883
181,0.12020744853969123,-0.38769757354718243,10.68938218717187,0.1012722651910051,-0.02649960511494191,-0.004229630823416744,0.07774943944405976,-0.6464167864993031,-0.5930597854189417,52.347801140316086,4.922468889719815,-1.078429782535995,5.687576090786669,71.5356654022177,3.7900919914245605,2.5,1,0,0,0,0,0,0.4788521766451859,-0.15164055634825457,0.2200610568438044,-0.12691265483768044,0.1982017281664127,0.18474200682672948,0.0775483571023079
182,0.10083161973263643,-0.23695885711200226,10.24203058119118,0.003847745796437055,0.06104225588410611,-0.004755017168835718,-0.14100262246929635,-0.759624697180119,-0.2422537765113037,52.34781130329095,4.922508469999895,-1.1433906124511857,5.6386562284355115,70.91510878261177,3.7900919914245605,2.5,1,0,0,0,0,0,0.4845108230411812,-0.1504032269297052,0.25762798078588256,-0.135706768105126,0.13237579457769869,0.08353531736317651,0.011712579142903332
183,0.45827580473836826,-0.020695469496433805,10.467445191387911,-0.03984111656601996,0.019396665050129915,-0.0020914961082686982,0.3423871678042762,-1.1728652071382633,0.270013716065933,52.347819786304626,4.922547412705799,-1.1935547510084725,5.609908794585546,70.78226421075051,3.7900919914245605,2.5,1,0,0,0,0,0,0.492685494559083,-0.14234968627681086,0.3152984385462465,-0.17052915548313757,0.06340656452522908,0.10562878907477224,-0.030775416594144903
184,0.4297251477084083,0.2699724995710077,9.640282804857968,-0.10671028348804612,0.010328184553445034,-0.00869909393937745,0.40724636037514395,-1.0909824132380983,0.06874176290650968,52.34783023274384,4.922586142838538,-1.2357873825193528,5.592347093221408,70.79285567996976,3.7900919914245605,2.5,1,0,0,0,0,0,0.4884804765003203,-0.1395447674187364,0.3202923702976797,-0.17269395342089247,0.07290145544635579,0.09895819536662245,-0.1705275135170726
185,0.7132799952088799,0.23726869216253782,9.530074560658115,-0.07777072668156203,-0.04395573140723166,0.013679424589668822,0.36944009719401,-1.1794010423062742,0.2268116735935506,52.34783881126291,4.922624802097405,-1.208108497121295,5.566854722320436,70.17327628541271,3.7900919914245605,2.5,1,0,0,0,0,0,0.4919164051174439,-0.13453720260198973,0.3250310105731006,-0.17336419241781548,0.04280297547799988,0.09082796272338452,-0.1479349342708535
186,0.595149400793665,0.03825220166876808,9.446773839329126,-0.06850697583789458,-0.11340206109439867,0.030088637893572995,0.44814304228562685,-1.5787439466650584,0.2952948554691223,52.34784928988,4.922662802015842,-1.1435569382168556,5.535879705169533,69.37265219635323,3.7900919914245605,2.5,1,0,0,0,0,0,0.49982696806823884,-0.1249469679888883,0.3360477678128586,-0.16780629611244188,0.003017499630059915,0.07528626611217883,-0.1405685573773132
187,0.4236215836387769,0.02673995087068161,8.993087243351372,0.045864411723994636,0.018416813376997396,0.0700273050992705,-0.23432224952927794,-1.2521315736671697,0.08442380989955531,52.34785787924051,4.922700899959253,-1.0756096235214188,5.482096673724321,68.16472554490939,3.7900919914245605,2.5,1,0,0,0,0,0,0.49487491598128525,-0.13808003405082428,0.2749942175311305,-0.11727006900375528,0.049890590385453196,0.008160741885269059,-0.04953028016645595
188,0.46733882241854513,-0.14459183005119253,9.257862821393646,0.004432116796453632,-0.03480904033018007,0.0030937876884338383,-0.021552621959373686,-1.4886745541267288,0.02601109795836099,52.347868361510315,4.922739030585102,-1.0084875197143512,5.415656460010559,66.84481760777663,3.7900919914245605,2.5,1,0,0,0,0,0,0.5029399657515907,-0.1316684222958334,0.2951544916411914,-0.12813800451575214,0.04050036651007997,0.06737279358627413,-0.07513576866893787
189,-0.1272902594332314,-0.3276620548125758,9.248710202129033,-0.03985938917695819,-0.08053114871364586,0.0590821196159109,-0.5263628117191727,-1.3971192805591284,-0.6671488489340703,52.3478769521015,4.922775900686737,-0.986752380666284,5.313357511325718,65.94191466224284,3.7900919914245605,2.5,1,0,0,0,0,0,0.4944092539267895,-0.12288547493081754,0.2279447942138297,-0.0674697511771418,0.05305117837524268,0.003758786885614053,-0.09719958021380551
190,0.46046429106044223,-0.05739235115106528,8.973848965522194,-0.14858203350875165,0.08112460625442797,0.048102230252494105,-0.058886219745425294,-1.2052741380308885,-0.9058923199586062,52.34788743478595,4.922812032662654,-0.9892652313095645,5.191491998445294,65.15912757110786,3.7900919914245605,2.5,1,0,0,0,0,0,0.4977146106677061,-0.13095571919940663,0.25909193593620966,-0.0912908477224831,0.0750102458356156,0.03925788769384724,-0.16987807729751442
191,1.084816641684166,-0.060168489601482376,9.079864148843065,-0.07283563888122718,0.10316235740738777,0.07495281210124179,0.262556553848482,-1.1098608444486628,-0.4708419752785221,52.3478985549584,4.92284601140932,-1.0484190451424116,5.1527405471653065,62.3805326063565,3.7900919914245605,2.5,1,0,0,0,0,0,0.5088275832413419,-0.1361795621070636,0.2704031790598338,-0.09994743352579141,0.05779915805423055,0.08327520216499214,-0.1001626695981825
192,0.6445104418937049,-0.1305356548302214,8.704491987159376,-0.10244912826755845,0.05458658184748628,0.22783128524206836,0.8701767176918591,-1.8788227892605276,1.1958371809479735,52.34790988991461,4.922878636538889,-1.1361686687086805,5.163381058179441,59.03468391628122,3.7900919914245605,2.5,1,0,0,0,0,0,0.5303542406142703,-0.11963318851059757,0.3469470028681352,-0.10407501486767592,-0.1418116274040776,-0.05539452600006994,-0.10595354276062201
193,0.1683184881804078,-0.20719663860663284,8.889749970407415,-0.12598052588467418,-0.02630035212432586,0.11986619151020311,-0.291182711447149,-3.436105430535507,2.4203718424405127,52.34792129723622,4.922910174649495,-1.0824811514577788,5.1295376077568555,56.962140428031994,3.7900919914245605,2.5,1,0,0,0,0,0,0.5587918908466978,-0.10113972382436824,0.43578979390465444,-0.10414739549905759,-0.356304090231192,-0.31438131891976573,0.01851483176524861
194,-0.08441583573022571,-0.5024704028605858,9.747568546618666,-0.04869206950617255,-0.17339944303842875,0.11897388364770216,-0.16255061220408581,-3.468077682927951,3.5006663222756504,52.347935258380886,4.922940714627438,-0.9509961448303714,5.066043957270371,55.260535767180144,3.7900919914245605,2.5,1,0,0,0,0,0,0.5532260232939357,-0.10072439115233005,0.3881314836673689,-0.0709570540874528,-0.3699783698146503,-0.21397228240483926,0.07686508087322678
195,0.2681484852240601,-1.1591792405844759,9.8793726882542,0.13820873574559034,-0.08165528082647697,0.07477864992405657,-0.06807135673817853,-2.303082618990476,2.552544344263107,52.34794755052335,4.922970286108238,-0.8442569207109528,4.956175249258497,53.49341570852119,3.7900919914245605,2.5,1,0,0,0,0,0,0.541115980364065,-0.13013792252270037,0.2549755269094295,-0.016446121387349945,-0.16096687982009558,-0.013148631736104668,0.2307306122492517
196,-0.0345308215569628,-1.347618730610708,9.956926907600552,0.1287371913195724,-0.03262354001447943,0.023073755762068777,-0.07781698433424361,-1.7706425194067887,2.0831755462746187,52.34796180978369,4.922999534683075,-0.7563486998970762,4.822097948002156,51.700911202383665,3.7900919914245605,2.5,1,0,0,0,0,0,0.5328595309721992,-0.13481351713951356,0.20376919970355156,0.019436040989065286,-0.09495660569265921,0.01817587660648807,0.22037588569488684
197,-0.13244191889961765,-0.9886481978443096,9.851174373408318,0.03554010230612212,-0.024038464955376024,0.13333628278145768,-0.8663375595949867,-1.4277203171828374,1.1932786400741473,52.34797673180947,4.923028039887636,-0.7562372650506446,4.761718860546621,50.19655548098203,3.7900919914245605,2.5,1,0,0,0,0,0,0.5253247453626516,-0.12548246091336607,0.16687715340385414,0.05261773571963845,-0.09491941064857329,-0.100864108921662,0.1240109263854315
198,0.026929999846509622,-1.2078817094237753,10.372004387323704,0.040362338139736706,-0.10062490236206685,0.09641157294822451,-0.3510394847005254,-0.9744126993462521,0.6509261156493402,52.34799187713554,4.923055661535206,-0.801795447106787,4.745702873933545,48.77424701624349,3.7900919914245605,2.5,1,0,0,0,0,0,0.5224169846112342,-0.13109435542735362,0.135076523315284,0.0490419640343687,-0.005426149891057475,0.06994575972673915,0.1138215658889456
199,0.22409596241923596,-0.8394145848258511,10.28125242994484,-0.0834280838058349,-0.03219451435850529,0.045197423587445676,-0.7460711675342377,-0.5583675987904342,0.10958244619857993,52.348004568254865,4.923082035031017,-0.831746642495825,4.726250947356231,47.14926147143747,3.7900919914245605,2.5,1,0,0,0,0,0,0.5204674014049949,-0.13562161082396618,0.13445075473360263,0.046313292631698345,0.03411069532992515,0.02845579030391204,0.022241953862749766
200,0.2210121426546667,-0.7011196633391625,10.279635073304066,-0.05158146952423505,-0.1628563468279759,0.09230689379012857,-0.9732626944681744,-0.36625268580950177,0.2081708608418809,52.34801896193932,4.923107674526203,-0.850064733696848,4.701158885875469,45.46537823220397,3.7900919914245605,2.5,1,0,0,0,0,0,0.5154517463998892,-0.1265982718669295,0.11120165743282139,0.06310316354579912,0.007421929834207583,0.014846626581841871,-0.012022660617569887
201,0.25120761484088844,-0.8669414373995714,10.098047086948128,0.06454588434707208,-0.033484651093855206,0.041691041913358394,-0.8540241183955011,-0.09550784262833845,0.19234003737169802,52.348036458697095,4.923131797877903,-0.946569888032533,4.723886435773488,44.320049746143084,3.7900919914245605,2.5,1,0,0,0,0,0,0.5200577721122408,-0.15003661061733872,0.09337865673409126,0.06893500104690994,0.08565252149125702,0.07466212285924333,0.09497309416248181
202,0.06208516619145962,-0.44091842632791806,9.88776536797559,-0.08084732078694544,-0.07403308130880953,0.04412820008959769,-1.6021599397794337,0.24576367221654133,-0.5701279349870868,52.348052471507216,4.923155415733253,-1.0857825308498645,4.7745679902304,43.32827732415956,3.7900919914245605,2.5,1,0,0,0,0,0,0.5141780958347281,-0.14232642063557366,0.08158594769893951,0.07328112454894943,0.09841170601155574,0.005631664741118233,-0.07879762392781485
203,0.3364361513234191,-0.5219454235589951,9.926951665738518,-0.07057948559862524,0.03258226039078793,0.038159338075919175,-1.415448959464718,0.08578835591418296,0.20082153456307317,52.34807051378417,4.923177593630569,-1.2009797096546326,4.735812817237092,42.77448026473923,3.7900919914245605,2.5,1,0,0,0,0,0,0.523763774558532,-0.1518069829710892,0.11541606396620663,0.06201452304282966,0.04816970614665179,-0.017291119980260634,0.02422981352667073
204,-0.3335614118712532,-0.1648703806510038,9.306758734201656,-0.17041637435501894,-0.07916371108234348,0.020896800085133897,-1.7541163633856791,0.2657385448306463,0.14393655014258352,52.34808671039175,4.9231989735772625,-1.3002529907884592,4.643338215554116,42.34184440580897,3.7900919914245605,2.5,1,0,0,0,0,0,0.5071468909131097,-0.1399525604532277,0.08511441524435641,0.09399173567891218,0.029376532341325753,-0.058402935658203065,-0.1818483169615473
205,-0.47776911903061337,-0.07189233740001354,8.722164945646036,-0.10432434331900821,-0.0216709258904607,0.0282969391369653,-1.6667599190058668,0.6039169198840202,-0.266836207176695,52.348102285152564,4.923220405335001,-1.3168171522860115,4.608615666777483,41.67807714422322,3.7900919914245605,2.5,1,0,0,0,0,0,0.500732292781907,-0.1502469958926057,0.05021240502498186,0.11579118681146242,0.10366091965420353,-0.025091440363335948,-0.1917649837667424
206,-0.2731478353502773,-0.10344320869110826,8.868095843707009,-0.17640801754509078,-0.08383760769995455,-0.0036690317452770516,-1.2928484443991979,0.7144633572625085,0.3903782104469081,52.34812017984104,4.923242172222235,-1.2902278986271545,4.611528167903319,40.94664252920543,3.7900919914245605,2.5,1,0,0,0,0,0,0.5020438376021631,-0.1461586022680583,0.08137499098155695,0.09078941740126371,0.06263272701786181,0.003939807161976268,-0.22855328570062938
207,-0.25675266939273417,-0.19208098107568528,9.06126633672034,-0.12736374978741577,-0.07378184028977015,0.048294429584568956,-1.736860613917168,0.8797456305004481,0.11989862220056641,52.348136326722795,4.923263732989552,-1.3706472433548145,4.575448567373943,42.038612249611354,3.7900919914245605,2.5,1,0,0,0,0,0,0.4942441207480739,-0.1490648915600073,0.03535531113303597,0.12001092870752673,0.07410126531520804,-0.03262340222704092,-0.15758141294195044
208,0.46369956334792256,-0.6105687324525357,9.279644001752528,-0.08226211004627139,-0.03968707570147713,0.09396984257393101,-1.0509490761697693,0.8462063813126202,0.6940986307145263,52.348151884729894,4.923284907179359,-1.5114696422713245,4.513846197421688,43.64805682689456,3.7900919914245605,2.5,1,0,0,0,0,0,0.49996101192900066,-0.15448547572549523,0.0571992152025842,0.09290373710916831,0.029566307802626875,0.04464995869769654,-0.05223894751628849
209,1.0260843895214091,-0.783938424137405,9.71832599817206,0.031099232463487933,-0.08305594327085608,0.04750907214873581,-0.1693353260337258,0.6231869580995257,0.7396226676325407,52.34816724433212,4.923306270335837,-1.5577201552411957,4.588048647117014,41.21582982555686,3.7900919914245605,2.5,1,0,0,0,0,0,0.5210658231163326,-0.1601087619009702,0.0964170780837195,0.05058789163416658,0.06234403480411294,0.20033571471310924,0.0019957006306329577
210,0.7148307511772121,-0.7283608616085231,9.60009104232354,-0.00285550955574556,-0.07311111639141134,0.08904400508560019,-0.9688648022000643,0.4980925903313542,1.051176330527769,52.34818506652891,4.923327696495561,-1.548991283982615,4.742423553186904,37.629814636108094,3.7900919914245605,2.5,1,0,0,0,0,0,0.5363736225529372,-0.15702284001631156,0.1126255194111196,0.06127017728434062,0.007107467863182438,0.03489707969249768,0.02797376081659209
211,0.18636147236170308,-1.0372704255381853,10.033207313086283,-0.015689115774277285,-0.16098066450857135,0.19130611918124624,-1.2184577974907898,0.47735974987792007,1.0106872611708835,52.34820118898662,4.923348190095521,-1.5416845435541713,4.842805508107397,34.343142716438805,3.7900919914245605,2.5,1,0,0,0,0,0,0.5446341907713118,-0.14930295158602175,0.0858816429753577,0.08959146337805035,-0.011834802094228013,0.0009229759952855092,0.06171156261699421
212,0.9985592356187208,-1.1262058325222366,10.577910742707914,0.0720085260980883,-0.05491890602716845,0.09471450004113317,-0.2773436800293151,0.7295230729380874,1.0019316192723724,52.348219268206265,4.923368054916165,-1.539081664000897,4.905528096667979,31.162484942899095,3.7900919914245605,2.5,1,0,0,0,0,0,0.5628256294317465,-0.1729710213535308,0.1156196459068872,0.04147666951491983,0.08735388690959502,0.20115968314738836,0.14666320842711467
213,1.202555526676337,-0.9273242770767015,10.528657203337636,0.05780814741734232,-0.025344740526880672,-0.012664910629997389,0.11443143764087482,0.46190714544373035,1.0444891829472598,52.34823547726065,4.923385802964665,-1.5233520163055283,4.885052141000309,28.851944167462573,3.7900919914245605,2.5,1,0,0,0,0,0,0.5765377174009603,-0.17274254483175194,0.15969129667406223,0.018354186123212317,0.08869233911911699,0.2357427192945321,0.10117722772080542
214,0.9772495380595166,-0.8972041031646139,10.644927185676035,0.07451768677759785,-0.1358083709307889,0.04293695033217038,0.02073976902847141,0.3806218826424742,1.2812652889456113,52.34825358565663,4.923402527406418,-1.5002548241887355,4.81986244837417,26.785790008202532,3.7900919914245605,2.5,1,0,0,0,0,0,0.5749720369443875,-0.16050426300326626,0.13638858913863539,0.049473041589520775,0.03784644823607285,0.19353680072810073,0.08815409923683573
215,0.36282667591233275,-1.3469202663994142,8.94806438501502,0.11334653084186938,-0.08066004564988957,-0.0012063601422164852,-0.5592104360723686,-0.7114498794139231,2.26792505128306,52.348274863424265,4.923419546278574,-1.5127967994240266,4.994807574946751,26.28019338836562,3.7900919914245605,2.5,1,0,0,0,0,0,0.6068247048770976,-0.16050774830901574,0.22632526941157707,0.030625436301240216,-0.07751385147798237,0.006280861808442968,0.16421764024186317
216,-0.013157193896934039,-2.022028357548354,9.170066844857667,0.42317082409155327,-0.04281730339003373,-0.010016899524029876,-0.8157921234961005,0.30168697270524214,1.0624633669407426,52.34829720902318,4.9234366633165685,-1.5449537879025819,5.311482517433053,26.211906955059973,3.7900919914245605,2.5,1,0,0,0,0,0,0.5993472071253775,-0.19290541089146673,0.0941703423671421,0.06523115557738435,0.18234801576942378,0.2205703515584455,0.3620393801351466
217,0.4709118338163347,-1.5039862575765364,9.285355908981265,0.2718425539621582,-0.06629927837079669,-0.03584062230671598,0.3707987224918019,0.4421510191954074,0.7067533004152781,52.34831738495647,4.923456355925653,-1.4652751212748834,5.4282876675818335,28.150493503465214,3.7900919914245605,2.5,1,0,0,0,0,0,0.5978293223352319,-0.18202179573830768,0.1784416604901611,-0.02206373511118161,0.1938361862400015,0.3229857125683816,0.13114513182843923
218,0.25181496716534923,-1.2729012185393989,8.968945480827319,0.15963616848628026,-0.06444187777563042,-0.042348011167063604,0.19566816821823912,0.6623181199695796,0.5789014817153776,52.348336829881504,4.923477542964537,-1.324295974425756,5.418494537210063,30.649191406069434,3.7900919914245605,2.5,1,0,0,0,0,0,0.580368107192336,-0.1755170256299712,0.16329690764022406,-0.009247231769166326,0.20150923438286558,0.25620588437472525,0.04986288715437456
219,0.8547186056508744,-1.2234123025382038,9.1199279606072,0.04999726841765749,0.06283003844190234,-0.016417799127380294,-0.022006559205711984,0.45331170086347466,0.5376977728746074,52.34835855795529,4.923498592549806,-1.221678064471194,5.476844055713322,29.923759133823182,3.7900919914245605,2.5,1,0,0,0,0,0,0.5975803095481768,-0.17678993583234062,0.21922634864879872,-0.04073565688815054,0.17167347619876816,0.1820669954157839,0.09517517188860058
220,0.27193976676591836,-1.399323688909495,9.662247812643669,0.0716614131023261,0.008091583309017256,0.046523807675977205,-0.22104628506568663,0.4915482724129149,-0.03833815616288461,52.34838105527228,4.923519278451549,-1.1440001456350282,5.584821231405726,28.275210436568912,3.7900919914245605,2.5,1,0,0,0,0,0,0.5990318657459227,-0.17198090494945284,0.17786466792496616,-0.011814338094394925,0.2180902744949035,0.18981492327936111,0.1211609532800801
221,1.243422508059917,-0.5118721473595631,9.298096316136803,-0.07392287258194513,0.1350042512544229,-0.09819278394166563,1.1284516430270108,-0.41331580798733436,0.5858400348397809,52.348403811764285,4.923539843097818,-1.1234783583998942,5.675075363421148,28.00568860704377,3.7900919914245605,2.5,1,0,0,0,0,0,0.6294626889997802,-0.1724170998551127,0.38081878235432065,-0.1496929092571742,0.15222941555011155,0.24544513801545997,-0.06176522171185305
222,1.1722452282458102,-0.4379747626277952,9.471266109240634,-0.037240627203253,0.02260761886025381,-0.06827534246569511,1.3171760793771545,-0.25140429464375047,0.3267299641910055,52.34842665557808,4.923560049461173,-1.1317785524354573,5.7510420104308935,28.143602436070683,3.7900919914245605,2.5,1,0,0,0,0,0,0.6217041171340925,-0.16630025958508662,0.3413274331094888,-0.13424754057583488,0.1908550994367308,0.3021541920735834,-0.08408623563894758
223,0.5976957425521457,-0.6213353080283719,10.169531837990062,0.040066008253723744,-0.032439667710002985,-0.022370213559116114,0.5952454021354727,-0.32168186054978126,-0.03461476923031542,52.34844699937096,4.923581725645724,-1.1668459314928437,5.756788009556754,30.24651474319813,3.7900919914245605,2.5,1,0,0,0,0,0,0.6097926242532757,-0.16376279726467147,0.2822648248002427,-0.08937815142399576,0.19373868135527678,0.22698861005626678,0.028866142572241682
224,0.8611444202552225,-1.1626316846215854,10.44590731651555,0.06798354487403581,-0.001793093538078619,0.00712212848760271,0.2973720070677616,-0.08163676739988404,-0.23680057391909762,52.3484665008516,4.923604527592766,-1.2141819956162934,5.723349328450428,32.89823099270622,3.7900919914245605,2.5,1,0,0,0,0,0,0.6037426735816154,-0.17028324863884872,0.242802967314814,-0.0786170406126437,0.2083690660560735,0.2464515682260971,0.14767592377744274
225,0.8045728521447567,-1.1138560289081216,10.243321156424251,0.10982600976364965,-0.04362531417236618,-0.01847998119505722,0.5622654691500688,-0.46937712447952185,0.29714661839413437,52.348488247980214,4.923626115603447,-1.1799098115309152,5.619870488983878,31.91896302021447,3.7900919914245605,2.5,1,0,0,0,0,0,0.6092061068417676,-0.16372819018904197,0.27165813947979206,-0.08162889177048947,0.14678044326364992,0.24333966416436031,0.12369729684104569
226,0.4997424969192867,-1.077031690594671,9.945367852947587,0.15446334066965667,-0.05774177785332316,0.028370531542598096,0.5322418251024608,0.03439151719870226,0.22902409496534226,52.34850822227564,4.923646663166023,-1.1010521654306655,5.479367034001831,29.90160094071792,3.7900919914245605,2.5,1,0,0,0,0,0,0.59473166684044,-0.1652126668840088,0.19875549883081853,-0.02584280214740765,0.18373473634901824,0.25411608229196064,0.09308555972200443
227,0.23596640970396981,-1.0062484145662174,9.875040762246545,0.19565334094246598,0.016795053345885123,0.022837007313152344,-0.2556156251608437,0.21671365541318496,0.24946905222168358,52.34852759926444,4.923667181688727,-1.0763091442758268,5.264972399674063,31.77507108013436,3.7900919914245605,2.5,1,0,0,0,0,0,0.5752310739855453,-0.1694902659462002,0.14161974550804926,0.027386078209549844,0.1766472490640452,0.16003120359159523,0.15227518221064543
228,0.41510774122576266,-0.7993582070035362,9.47376141665661,0.12091957893533631,-0.04690962165560101,-0.010626094306980326,0.3433931664848803,-0.03164617998975333,0.4923014910178993,52.34854677500745,4.923687690529267,-1.0837443688542747,5.011161415035881,34.76922050057309,3.7900919914245605,2.5,1,0,0,0,0,0,0.5619562736643172,-0.15640366082643106,0.16680010468368647,0.01436322962090434,0.11681249609462058,0.2103561139159945,0.00392474109980079
229,-0.3395514307274673,-0.7221012502146572,9.709874232862779,0.11958679560368651,-0.11418308162804133,-0.009817651057522409,-0.10462968518377164,-0.22360800539855863,0.14418532401043316,52.34856588294631,4.923706606865628,-1.0423101409468796,4.837273479641241,34.36908370618177,3.7900919914245605,2.5,1,0,0,0,0,0,0.5498069421791562,-0.1477722298870125,0.11245215678617787,0.07777868850849995,0.11510518782426155,0.14324838082501617,-0.007289892273354854
230,-0.29349914104240693,-0.5672412532450473,9.216903039310996,0.053788923949690495,0.10254951875974264,-0.002668290001547189,-0.4415902675878017,-0.25765516225539736,-0.06780723964938226,52.348584968040456,4.9237243565358515,-0.97239647108243,4.712583580545299,32.987332206137914,3.7900919914245605,2.5,1,0,0,0,0,0,0.5553156823028635,-0.15678609109074598,0.11930428523302365,0.09542307425762543,0.12012412549224806,0.051592531296106865,0.0018085804565835298
231,0.504877662188569,-0.6568435565713208,9.459222691498962,0.1026187121492432,0.23018125533838868,-0.029074943357702467,-0.2355523529479472,-0.5613953923295746,-0.25420165795283367,52.34860404543772,4.923742035083934,-0.9481490257966378,4.645116527694871,32.60351492443703,3.816599914059433,2.5,1,0,0,0,0,0,0.5697634677888785,-0.15462492422018514,0.15555439927451378,0.07251296324586541,0.12862100400762633,0.11462023949679219,0.10157702452792765
232,0.8242729243555498,-0.3285485747674492,8.913476438149662,-0.018517538844783604,0.28360945583870323,-0.010000246713885975,0.6051650989795725,-0.45357125786125974,-0.8058191480561222,52.348620590800174,4.923759689919233,-0.9504004238860018,4.606479080168707,32.520322911651306,3.8598929497841366,2.5,1,0,0,0,0,0,0.5673488128460892,-0.13573680259509546,0.19244061590822337,0.047029222603636504,0.15588187741733625,0.19622369735236111,-0.08657054923830451
233,1.0883894994764756,-0.523161807259179,9.106770706432993,0.04305631186304916,0.2561368626579189,-0.034152167756189566,1.0954404698286766,-0.6300362062147535,-0.9704198223056553,52.34863881250576,4.923780197545368,-0.957149030954659,4.754869185760765,32.79797379876472,4.132727629949878,2.5,1,0,0,0,0,0,0.5588645265157686,-0.05164429043524613,0.26190440148025307,0.039266790928486305,0.1766592648988509,0.2928535796790341,0.001895899302296236
234,0.4723288897986665,-0.3153060436678498,8.652273236514983,-0.030289258873095234,0.20140209388155372,-0.0188755832275161,0.8696144977078758,-0.8792269159297307,-0.8776539376590763,52.34866012844991,4.923802927739367,-0.9644061068889003,5.008386420400654,33.17224114181822,4.549226756134381,2.5,1,0,0,0,0,0,0.5341028263921667,0.09294323608227455,0.3665191393590483,0.051791178046321946,0.11278211146461571,0.26673161131651163,-0.11351639164590753
235,0.4725098448681525,-0.7152119397623558,9.25193734095056,-0.019048547251899542,0.10451854015388515,-0.06523011180879602,1.2456422961835645,-0.9541971511892747,-0.4939043146042548,52.34867995746978,4.923822902550861,-1.11426213955982,5.04538028467761,32.86865592452958,5.177286696592323,2.5,1,0,0,0,0,0,0.4924506200087303,0.29025454530936806,0.45502519164289573,0.10297543233071978,0.06285438301978004,0.436256475487229,-0.03539448983682254
236,0.17601768648845018,-0.9430934521599628,9.320157490948057,-0.07030688853723428,0.07704548662070143,-0.018652770353569867,1.0301118796871185,-0.772080013236907,-0.4882165127090089,52.34869928551203,4.923841322981756,-1.3404510406705952,4.949226767314527,32.37138541445387,5.380833252203342,2.5,1,0,0,0,0,0,0.4697812143459459,0.3868535902231154,0.4453492235280913,0.16025959881427443,0.00324282359273126,0.436372701966925,-0.04503508176987322
237,0.4310842366017111,-0.9586838917642663,9.8271205969054,-0.08848981146148407,-0.0015217531248411381,0.01787889044860347,1.3949522310358444,-1.2692074069831165,0.1754276544066985,52.34871085643921,4.923885289294988,-1.3904759845104626,5.180331222479066,47.64117191064602,5.445944560988072,2.5628108325285517,1,0,0,0,0,0,0.4346188399472131,0.456231015706384,0.5405791353518704,0.06923324656869811,-0.09864474346831299,0.4526071971418318,-0.025151829277912065
238,0.24017100189034205,-0.8622824782148087,9.72410199051144,-0.0635681033879937,0.019014761964316357,-0.017495542681160964,1.282365485414581,-1.1068633177942415,0.056235994438819395,52.34871475493999,4.9239466727890955,-1.3406822096162099,5.610550556052304,67.37838166337228,5.465912094922832,2.6655970350137115,1,0,0,0,0,0,0.37901011644066307,0.4968290936021873,0.5713544843603743,-0.010612359276482151,-0.04116112063453262,0.49272206946842756,-0.03190728197454128
239,0.35193772834212117,-0.7503626752912537,9.604038697459714,0.03690477318198333,0.09185988605648536,0.007141854696319748,1.0284132681966984,-0.7842063538143116,-0.4923359110102123,52.348733774521826,4.923971906445594,-1.2878620262104181,5.2929047111505625,51.728100083139324,5.471158125765739,2.7924802719414026,1,0,0,0,0,0,0.40611754165401176,0.47819420414498554,0.49356196448388484,0.10394271664445934,0.013376797138377722,0.48611421391297044,0.008558537315108718
240,0.4655509622057201,-0.8829135720311729,10.142100817016445,0.0016950343785677377,0.04515262585352744,-0.03626346269402888,1.464582813031901,-1.0271507898476797,-0.09055901424188795,52.3487604181712,4.923971737490867,-1.2405783720868497,4.528917430844449,25.976835757676984,5.471603114594031,2.9306524593971153,1,0,0,0,0,0,0.45927815162451846,0.4596227740282909,0.4441872093689708,0.24344993267597942,-0.049769041039742085,0.4992870733468384,0.015568556824424793
241,0.6253089902053985,-0.839802476690931,10.429619550278963,0.030167093084857936,-0.0029577980335813436,0.009975841212309842,1.5033565052389732,-1.1165523602533212,0.03295826514158333,52.34878204221256,4.923971363304578,-1.8057077640906471,4.070294613513999,31.107624634391385,5.470482792399321,2.97484012682969,1,0,0,0,0,0,0.4305142610698098,0.4333717151674475,0.38269362445134625,0.2830946863659837,-0.11301598958581907,0.48524138644423165,0.0366586700138411
242,0.21781681019796117,-0.7339831538839208,10.149835784554476,-0.03161091599964794,-0.044834922058947416,-0.03780817203168775,1.3463805402862623,-1.1888053095336888,0.3661444349806122,52.34879691615407,4.923973781389074,-2.6984202199614717,3.824073540827273,45.16769820673662,5.113496367828706,2.9580688168587215,1,0,0,0,0,0,0.4078163903172237,0.3057188385233129,0.3030228337544325,0.24962050822496226,-0.16424352849068652,0.4235346036518145,-0.046002160554624985
243,0.12412399251436332,-1.4165252709673324,10.540104529977464,0.13746010874506387,-0.09894857658442661,0.023432442672213304,1.47670242376122,-0.8325106178983365,-0.040077027684742195,52.34881963360416,4.923976176877008,-2.9255529773405224,4.1114091606227205,40.37690951657835,4.7033192232899035,2.904282308074743,1,0,0,0,0,0,0.4628395779968528,0.15281036835275008,0.2101833186199965,0.2144469473878282,-0.03481998502351002,0.4831678113837461,0.11721050886260828
244,0.08448258181886659,-0.9790274314359239,10.157113693609386,0.005132521216644537,-0.1906622701259993,0.0701819714729991,1.2246524283520521,-0.8448937832949546,-0.331363063110509,52.34884752314697,4.923978564831039,-2.772743385720546,4.687903248705013,30.084613229488234,4.295100262371753,2.83310929765094,1,0,0,0,0,0,0.5433103793535252,0.027222512316233387,0.2626387915557286,0.09560792263686911,-0.007700231776385595,0.34761818583693,-0.0718092558021454
245,-0.2689348037368793,-0.7387417156714441,10.108433115897578,-0.08739482857467672,-0.21941157309785847,0.16037871071559012,0.8718758471330155,-1.1140677565569774,-0.12971875622745843,52.348869566957326,4.923988578798259,-2.735484196936379,4.845760074580206,28.987053199312623,4.073133330445815,2.821076195814255,1,0,0,0,0,0,0.5653831553049741,-0.02397313535072668,0.25495763845566516,0.07454234575382865,-0.0679437196779592,0.18853163387372288,-0.11896315889683555
246,-0.7273802473006157,0.4773856190736693,8.807282190963596,-0.25938747644998866,-0.26820348707059477,0.10619968161552006,0.20817162118298593,-2.062218337531059,0.034739345194050364,52.348889641211386,4.924003678190951,-2.7873518696429977,4.739086613304527,30.594048459629217,3.9689049285836173,2.84844270212911,1,0,0,0,0,0,0.5674950821711707,-0.02492718695828953,0.32735907023858546,0.04821417091278688,-0.2002160431584259,-0.023168377593160556,-0.43810833746036326
247,-0.5104004329761189,0.8173718050453855,8.764351382963055,-0.31588322162305515,-0.13345011864460704,0.0038485332531687927,0.1187969748788141,-2.447234188882172,0.3818133094655771,52.348906522436906,4.924019837401413,-2.791244146661149,4.616489237822995,30.113321533366978,3.9000536719325156,2.8524149346317302,1,0,0,0,0,0,0.5782151180277522,-0.054195204600639924,0.3524472143463501,0.03849749125641359,-0.2080945270794162,-0.05056520438527461,-0.4161586324902527
248,-0.40602941216282545,0.8424027770172559,8.891844635615254,-0.35773892170729943,-0.14994853856388235,0.043448683687888776,0.09510069661284648,-2.7956734580006537,0.9917356623436476,52.34892485730217,4.924036349964984,-2.7630524793353985,4.506589887750105,28.991682492399743,3.8418124129848383,2.837509029082172,1,0,0,0,0,0,0.5882913581147676,-0.06367622736409363,0.3617632278310027,0.04201761465714485,-0.29613091510425965,-0.11733112050365338,-0.40740122443116
249,-0.34472961076069175,0.5698905516393528,9.223647119250439,-0.3075924416314728,-0.16163709152662953,0.04307064233269058,0.059601841530543195,-2.8723101000114957,1.2088998881275763,52.34894368193076,4.924052980339772,-2.745758576117399,4.4789323633674245,28.97712372760856,3.811829178196701,2.768806736366179,1,0,0,0,0,0,0.5944400083006879,-0.08494055058365413,0.34067562926249506,0.045754045062042135,-0.2960830339836105,-0.09894838128421715,-0.31907864156525007
250,-0.46855442622515786,0.2682207919059531,9.105437406601466,-0.2203936104323818,-0.0933009336919078,0.05717134893160258,-0.2414308100382535,-2.7968873710446247,1.0612599685298882,52.34896014212987,4.924069649993916,-2.7366014373211924,4.497500743873433,29.287805256951916,3.7986763794072314,2.6677769792308488,1,0,0,0,0,0,0.5994988646852653,-0.1103860594006795,0.30441820063498665,0.06142947803258246,-0.2641429731111198,-0.11627282498355722,-0.21960212572395368
251,8.275453605038896e-05,0.06767459192295705,8.957495008070772,-0.15330444731374834,0.05749321786457341,-0.04614937443538871,-0.5696653690546414,-2.716470977901623,0.565508887786266,52.34897833514205,4.924085697033741,-2.7351596366112596,4.505381556097448,29.192200139229627,3.793350737354131,2.5949997167875267,1,0,0,0,0,0,0.6121105993167723,-0.13775715483317003,0.29971459153428404,0.046781239015461835,-0.18838620483600327,-0.06898103512077837,-0.12487544989121334
252,0.7412566075947011,-0.6962216105124506,9.185657808470715,0.054119377375500266,0.18091301223902423,0.016867602690094692,-0.6867848330499028,-2.28405933950847,-0.3519325586751041,52.348997111977205,4.924101854343366,-2.7372663633877683,4.50329982316047,28.975577380165873,3.791295744956862,2.5434764111970782,1,0,0,0,0,0,0.6216541432423618,-0.16062599385586301,0.22443372963397223,0.06856597942867325,-0.0838841964896854,0.03403280538290399,0.11707377172227887
253,1.3859060147218663,-0.7612759139718359,9.542690330080324,-0.003334157538598316,0.16126667898622304,-0.038503106182587093,-0.40842204722098646,-2.217452330634719,-0.16882394805866632,52.3490160855152,4.924115823431494,-2.6388859948954346,4.460830359458122,28.070390373739002,3.7905279194082198,2.5180525987514364,1,0,0,0,0,0,0.6296898095468892,-0.15898280581922908,0.2601748225143777,0.03043538166652022,-0.10698488975472752,0.09017078969341456,0.08768518488517431
254,1.0200126123170896,-1.189744865779235,10.014915747200588,0.026304633795193936,-0.02210166455008189,0.09174769932003948,-0.47910088552784585,-2.488970438573335,0.4252080223785857,52.34903512532673,4.924128427235783,-2.486434784280833,4.395967538161532,26.972495942517092,3.790247484262088,2.507087934048875,1,0,0,0,0,0,0.6288931938504114,-0.13851724205141758,0.22981456227390287,0.07204710637755911,-0.21026587530328772,0.013897114380139896,0.15847683668138518
255,1.3797784805446813,-1.7156113851431019,10.947019905146572,0.013043035663613924,0.10901821057770056,-0.01696366466655054,0.09024294704713026,-2.3886803554938436,2.1085135254203644,52.34905165802572,4.924142165117786,-2.377496698850457,4.527217562490854,27.597505083768635,3.7901467147871233,2.5026833995168776,1,0,0,0,0,0,0.6398808884146796,-0.1638879240954724,0.28785359780893544,0.018247667625781835,-0.22250501558974578,0.07646997714169124,0.3677450548021131
256,1.1855643775033498,-2.2403730246621283,11.671418344352029,0.2566912834769474,0.09861124708239932,-0.049915208858552995,-0.1546452927507737,-2.177491755069821,1.5115222112722233,52.349069875464714,4.924156598967066,-2.295739365035238,4.773048631013819,28.71384370350038,3.790111122213523,2.500990214470283,1,0,0,0,0,0,0.6417988701341009,-0.1787657426453726,0.22953220297106786,0.026697252864963817,-0.09006045507568503,0.1821177497774861,0.5663667350250549
257,0.5765416432637086,-1.9495443663338052,11.077534410615916,0.2071228626730771,0.19414622833646886,-0.11873117424408972,-0.5193150408449341,-2.3212393832878053,1.2243026442043772,52.3490886605298,4.9241709470031045,-2.1287517311745803,4.748646243495233,28.099218835097165,3.790098551364208,2.500358555130597,1,0,0,0,0,0,0.6407564178084986,-0.17669622960918233,0.23800461254297578,0.04213265551493871,-0.08154437837813847,0.09229839170531295,0.4702211059505074
258,0.7757623279371668,-1.8683723039989009,11.089946386344169,0.26501558373309264,0.09540797265592707,-0.1037469625001369,0.23635946477083436,-2.356050015651196,1.3966159475318378,52.34910763684064,4.9241855842834195,-1.9141698736846584,4.559441248537211,26.98548171637458,3.7900942913076996,2.5001280286516807,1,0,0,0,0,0,0.6341251763962097,-0.16507651565867004,0.22323641085323864,0.05492088097884495,-0.09358216822838926,0.1888786894827615,0.4216388385381414
