Time (s),Acceleration x (m/s^2),Acceleration y (m/s^2),Acceleration z (m/s^2)
0.111431,-0.595813,-0.108275,9.899406
0.211431,-0.730110,0.018544,9.765409
0.311431,-0.574277,-0.170489,9.948460
0.411431,-0.343370,-0.286541,9.794122
0.511431,-1.141675,0.025723,11.564512
0.611431,-3.035595,-0.086740,9.244670
0.711431,-0.859322,-0.605085,8.891430
0.811431,-1.851447,-0.897009,11.395818
0.911431,0.157029,1.708774,9.479167
1.011431,-1.041177,1.363012,9.673285
1.111431,-2.003690,0.734597,9.692428
1.211431,-0.667598,0.648455,10.031012
1.311431,-1.973780,1.918446,8.698808
1.411431,-0.755235,1.392922,9.507881
1.511431,0.574876,0.325125,10.578071
1.611431,-0.204586,2.826821,8.751450
1.711431,-1.242174,-0.657727,10.057333
1.811431,0.853639,-1.115055,12.796217
1.911431,-3.390929,0.747757,9.764212
2.011431,2.300998,2.234298,7.239485
2.111431,0.640678,0.315553,9.121440
2.211431,-5.222634,1.573580,8.440084
2.311431,2.362015,1.870589,9.932906
2.411431,3.402295,-0.505783,12.198909
2.511431,-2.421536,-0.729512,10.815259
2.611431,-3.886542,-2.121536,11.819347
2.711431,2.135893,2.000998,7.966006
2.811431,1.727618,0.055633,9.110672
2.911431,-1.120140,-1.821237,9.549755
3.011431,1.364806,0.304786,8.927322
3.111431,3.320939,-1.130609,12.578470
3.211431,2.675774,0.054437,10.294521
3.311431,-0.847358,1.064806,10.009477
3.411431,-0.467797,-0.467199,11.310574
3.511431,-0.862912,-0.833600,10.351949
3.611431,1.040579,-0.438485,12.806985
3.711431,0.905085,-2.092823,12.879966
3.811431,1.074078,2.510968,9.501899
3.911431,-0.192622,1.572384,10.311271
4.011431,-0.110967,-7.258328,13.269099
4.111431,-4.871787,1.488635,1.013659
4.211431,1.680958,-1.287339,10.233504
4.311431,-2.639283,-0.533300,10.373485
4.411431,-0.843769,-1.491925,13.838890
4.511431,3.884748,0.193520,7.113862
4.611431,-4.555635,-1.372284,10.854741
4.711431,0.342473,0.620937,10.033404
4.811431,0.294616,-1.763809,12.206087
4.911431,3.665505,2.818446,6.633801
5.011431,-0.531207,4.804489,3.004488
5.111431,-2.181955,0.146859,10.296914
5.211431,0.702892,-3.430111,13.328919
5.311431,-2.410470,6.023034,1.571486
5.411431,-0.725025,-0.670888,10.977971
5.511431,1.860420,-1.183251,13.366008
5.611431,0.457627,-0.532104,12.213265
5.711431,1.576870,2.716751,8.979964
5.811431,-0.118146,-6.593722,22.163221
5.911431,-2.354238,-0.460020,6.151349
6.011431,-1.430310,3.510570,5.057230
6.111431,2.127518,-0.658924,10.329217
6.211431,2.732005,1.310369,8.228319
6.311431,0.848854,0.144467,10.190134
6.411431,-2.504089,3.366701,9.978370
6.511431,1.026222,0.108574,9.160921
6.611431,1.377967,-2.371886,11.990733
6.711431,-0.938286,-2.495116,15.312570
6.811431,-0.021236,1.200300,7.214360
6.911431,-1.625325,-1.026222,9.506684
7.011431,-0.668794,-2.355136,12.161820
7.111431,-0.855733,1.086342,7.836793
7.211431,-2.770889,0.720240,15.955341
7.311431,1.125524,2.689234,6.085546
7.411431,-0.396012,1.327119,7.039684
7.511431,1.314557,1.227817,10.383056
7.611431,-0.293121,-4.734798,19.418354
7.711431,5.747261,0.254537,6.517750
7.811431,-0.917947,-0.948455,12.584453
7.911431,-2.425126,3.736692,2.606980
8.011431,-0.656830,-4.062116,15.295819
8.111431,1.963311,2.749054,6.690033
8.211431,-0.743271,-4.648656,15.433407
8.311431,-0.000897,-0.099900,7.926524
8.411431,0.589233,-2.467598,11.538191
8.511431,1.343271,0.085843,11.062917
8.611431,1.371985,0.893719,9.718748
8.711431,-0.319442,1.825125,7.056434
8.811431,-0.971785,2.160121,8.911769
8.911431,1.027418,4.659723,4.063910
9.011431,-2.359024,3.000600,9.874282
9.111431,-0.055932,3.067599,9.021839
9.211431,0.909871,0.143270,12.809378
9.311431,0.997508,1.832304,9.055338
9.411431,-0.634098,4.653741,4.408477
9.511431,3.396313,2.376970,3.526422
9.611431,1.567299,0.382553,14.008780
9.711431,2.259124,3.809673,7.089933
9.811431,-0.230907,2.028515,8.989535
9.911431,0.494716,4.890630,4.357031
10.011431,-0.022433,1.382154,11.818151
10.111431,0.611964,-1.150948,8.247461
10.211431,-1.405185,6.949654,4.522136
10.311431,1.974079,0.289232,12.093625
10.411431,-1.597807,2.279762,9.724730
10.511431,-0.921536,2.536093,8.956036
10.611431,1.203291,0.313161,7.663313
10.711431,-1.846661,-0.189631,11.882757
10.811431,0.186939,-1.558924,9.913763
10.911431,0.942174,-4.142275,16.645969
11.011431,0.561715,5.180461,-0.289831
11.111431,-2.143670,-7.410273,17.226528
11.211431,1.929811,8.448159,0.794716
11.311431,2.958127,-10.206585,23.828325
11.411431,2.119143,4.974379,3.039184
11.511431,-2.399702,-4.889135,15.226129
11.611431,-0.983749,1.721935,6.620641
11.711431,-1.351347,-2.665006,12.997214
11.811431,3.171088,-1.119841,8.185248
11.911431,-1.187139,4.093521,5.649754
12.011431,-0.329013,0.851845,10.871490
12.111431,-0.905982,2.379363,6.615856
12.211431,0.334098,0.946361,11.402996
12.311431,0.171386,1.066002,9.483953
12.411431,-3.051148,0.079860,6.307181
12.511431,0.959223,1.007378,8.733503
12.611431,1.605584,-1.829612,11.932109
12.711431,-1.246960,-0.093918,9.535398
12.811431,0.166600,-4.617549,16.320248
12.911431,3.352046,-1.787738,10.280165
13.011431,0.172582,4.562814,3.710670
13.111431,0.737588,-2.714059,15.454943
13.211431,-0.352941,-0.147757,8.597113
13.311431,1.154238,2.478665,6.588338
13.411431,0.876371,2.103889,6.882954
13.511431,-0.662812,1.530509,8.050054
13.611431,-3.461517,5.469993,-1.971686
13.711431,-1.552344,2.178067,9.832407
13.811431,-0.139681,-0.066401,10.827224
13.911431,-1.798804,-2.753840,12.824931
14.011431,2.048256,0.122931,5.815157
14.111431,1.009472,-2.353939,13.112369
14.211431,0.090030,-1.648954,10.019048
14.311431,0.105583,-2.003092,13.196117
14.411431,0.672981,-5.820541,13.184154
14.511431,1.774278,7.022635,-1.522732
14.611431,-2.620141,-3.157030,15.677475
14.711431,-1.013659,0.137288,9.840782
14.811431,-4.414459,6.123532,3.592225
14.911431,-0.522832,-3.613162,11.016256
15.011431,2.592922,-3.759124,14.210076
15.111431,3.742075,-6.302994,17.405991
15.211431,3.730111,0.024526,10.007083
15.311431,-2.999702,-2.174178,16.185053
15.411431,-4.312764,9.190533,-6.761220
15.511431,3.191427,-54.760643,54.940704
15.611431,6.895217,27.759136,-35.635113
15.711431,0.938585,-10.808679,18.063120
15.811431,2.468496,2.837589,13.540685
15.911431,-4.317549,21.065214,-24.590141
16.011431,-0.375673,-12.564712,20.025234
16.111431,0.835693,-1.060918,11.650654
16.211431,3.739683,0.896112,7.070791
16.311431,-1.316651,-0.322433,6.758228
16.411431,-0.806680,-6.381957,16.806290
16.511431,-0.002094,-2.258226,12.255140
16.611431,3.191427,-1.380659,8.630612
16.711431,0.554537,-3.754339,11.123934
16.811431,-2.553142,0.993021,7.349555
16.911431,-1.438685,-3.220440,10.276575
17.011431,-0.374477,0.673580,10.538589
17.111431,3.262315,2.082354,7.562815
17.211431,-1.782055,-1.591227,6.663712
17.311431,0.877568,4.436892,9.622736
17.411431,0.980758,5.129015,5.627021
17.511431,1.917847,3.803691,6.131010
17.611431,-1.154836,-5.903093,15.417853
17.711431,0.139083,-4.689334,12.760324
17.811431,-1.201496,-7.584949,20.047966
17.911431,10.250553,-25.097719,47.863930
18.011431,2.125126,-0.840778,6.511768
18.111431,1.375574,0.171984,10.969596
18.211431,-2.478964,-0.827618,7.393822
18.311431,-4.319942,-1.111466,7.995018
18.411431,-1.081855,1.013360,8.856734
18.511431,5.315057,-4.529015,15.318551
18.611431,0.888335,1.254138,10.121939
18.711431,-0.818644,0.428016,9.583255
18.811431,1.355235,-3.739982,8.307282
18.911431,0.050548,0.016152,8.758628
19.011431,2.248356,-0.403789,7.342376
19.111431,1.567299,0.951147,8.371888
19.211431,0.918246,-0.393021,11.050952
19.311431,3.343671,-0.370289,13.176975
19.411431,0.803390,0.875773,7.583154
19.511431,1.065703,0.295215,12.091232
19.611431,3.142374,-1.048954,15.598512
19.711431,1.885544,-0.351147,10.111171
19.811431,3.988835,-1.292124,11.781062
19.911431,-1.002892,-3.883850,13.080066
20.011431,-1.639682,5.535795,-4.712963
20.111431,-1.776073,2.272583,7.991429
20.211431,-2.973082,-1.946860,13.751552
20.311431,0.646660,-0.211167,6.358627
20.411431,2.245963,-0.363111,12.493526
20.511431,-2.135295,-3.525824,12.174981
20.611431,-1.536790,2.283351,3.333501
20.711431,-1.510469,2.121835,8.623434
20.811431,0.171386,-6.731608,14.151452
20.911431,-0.133699,-1.713560,8.810074
21.011431,1.568495,-0.322433,9.844372
21.111431,-1.664806,1.142573,8.026125
21.211431,-0.114556,1.015753,7.098309
21.311431,0.076869,-1.109073,9.168100
21.411431,-0.716650,-2.693720,11.131112
21.511431,1.435395,-1.775774,8.653344
21.611431,0.378365,2.279762,4.827520
21.711431,-2.858227,0.189930,7.141379
21.811431,-3.805186,10.820942,-53.745190
21.911431,-4.236193,-7.805387,17.634804
22.011431,1.761117,0.792024,6.437590
22.111431,0.542573,2.949154,25.337599
22.211431,0.118744,15.222540,-6.476174
22.311431,-1.949851,2.953939,12.871592
22.411431,-4.328317,-4.543372,7.864311
22.511431,-2.221437,-3.268297,8.450851
22.611431,-2.330310,-1.237089,9.643075
22.711431,0.276670,-2.637489,13.444971
22.811431,-3.630510,-1.689632,6.206384
22.911431,0.056530,5.431707,1.582254
23.011431,-3.431607,8.535796,0.707378
23.111431,-0.617348,-1.904986,16.448563
23.211431,-0.508475,-1.687239,13.555041
23.311431,1.301396,2.351846,11.576476
23.411431,-0.564706,-2.587240,12.435799
23.511431,0.536590,2.320739,5.347061
23.611431,1.430609,-4.661817,18.873688
23.711431,3.866802,1.531706,5.872585
23.811431,0.753141,-0.235095,6.141778
23.911431,-3.702295,-5.612366,16.384853
24.011431,-0.672383,2.817250,4.753342
24.111431,-0.870090,-2.418545,8.497512
24.211431,-0.789931,-2.662613,13.901103
24.311431,2.566601,0.329910,8.151749
24.411431,0.550947,-0.667298,4.719842
24.511431,0.607179,4.641777,2.449054
24.611431,1.214058,-2.577668,13.227224
24.711431,-2.356631,-1.788934,6.506982
24.811431,-5.514559,7.462018,0.726521
24.911431,1.462912,-3.518646,11.256735
25.011431,0.469591,4.347160,7.062416
25.111431,2.303391,-8.415856,24.981068
25.211431,0.548555,9.314960,-5.513961
25.311431,-0.378066,-2.798107,5.742176
25.411431,1.601995,-6.722037,21.720249
25.511431,-0.060718,8.781061,-10.599008
25.611431,1.920240,-10.782358,18.363718
25.711431,1.840081,3.153740,-2.296212
25.811431,0.912264,-4.003491,11.861222
25.911431,-0.779163,1.116252,2.537588
26.011431,3.515954,-2.857928,11.283056
26.111431,1.170988,-1.171287,6.680462
26.211431,3.071786,2.034497,17.621643
26.311431,-0.952643,-5.843273,5.118248
26.411431,5.597710,7.828119,-4.177868
26.511431,2.938984,-17.344673,37.302311
26.611431,-1.093819,7.229615,-8.921938
26.711431,0.592822,-5.837291,20.508883
26.811431,2.827718,3.357130,12.863216
26.911431,0.735195,5.257031,-2.740380
27.011431,0.967598,-8.584550,18.634106
27.111431,0.343669,4.854738,1.528415
27.211431,-2.830709,4.481159,5.175974
27.311431,0.277867,0.138485,13.504792
27.411431,1.718047,3.463910,13.806586
27.511431,-1.966601,-3.295814,19.671993
27.611431,-2.366203,3.276971,2.752943
27.711431,-0.989731,-4.946563,18.963419
27.811431,-0.495314,4.465605,7.739884
27.911431,2.626422,-0.085543,14.242379
28.011431,-0.144467,-1.842772,7.453942
28.111431,0.562912,7.252347,4.986642
28.211431,0.247956,-6.074180,25.361526
28.311431,1.697708,-0.846760,9.162118
28.411431,-2.051546,5.228317,-7.034001
28.511431,-0.705883,-7.537092,28.937302
28.611431,-5.134997,-3.767499,11.399407
28.711431,-0.049950,3.465106,-6.635596
28.811431,0.147458,-0.881456,9.324830
28.911431,2.254338,-3.757928,7.583154
29.011431,1.952543,5.613562,5.825925
29.111431,5.268397,-7.595716,22.345076
29.211431,2.296212,-1.963610,14.115261
29.311431,-2.622534,0.590728,10.495519
29.411431,-1.828715,-8.009974,12.386745
29.511431,3.077768,-14.891731,24.164518
29.611431,6.216553,5.319245,5.794818
29.711431,4.177868,-4.580461,19.151255
29.811431,1.951347,7.293025,4.978268
29.911431,1.806581,-9.714561,23.518156
30.011431,0.493520,-8.015956,7.980662
30.111431,1.733600,15.352948,5.889335
30.211431,-3.248556,-7.515557,13.593625
30.311431,1.642673,10.504790,-5.267201
30.411431,2.898306,8.336893,5.158926
30.511431,-1.994119,7.544570,-0.164207
30.611431,2.059024,-2.407778,26.368307
30.711431,2.767898,-8.828618,29.128727
30.811431,-5.217550,-10.445868,21.538395
30.911431,-1.497309,3.463910,8.682058
31.011431,-1.062712,-4.500301,27.433712
31.111431,-3.459124,9.897911,-0.530608
31.211431,-1.466202,-4.945366,13.300205
31.311431,1.804188,3.536891,4.566403
31.411431,-3.095415,1.657329,-0.578465
31.511431,0.519841,3.178865,5.829514
31.611431,6.608079,-6.895517,15.288641
31.711431,-1.802394,-6.182157,15.598512
31.811431,-4.282854,-1.890629,9.495916
31.911431,2.312962,3.784548,4.419244
32.011431,6.251249,4.879863,9.568898
32.111431,0.716052,-14.536398,25.706392
32.211431,2.068595,1.760519,10.469197
32.311431,0.908674,-9.614062,11.497513
32.411431,-3.995416,-2.774179,9.394221
32.511431,4.958527,-0.681655,8.383852
32.611431,0.665803,2.139782,11.523834
32.711431,-1.802394,-1.711167,13.083655
32.811431,-3.173182,-3.487539,15.809080
32.911431,-2.216651,-5.393123,11.551352
33.011431,-3.305984,-0.768993,5.803193
33.111431,-1.468595,0.412463,3.606582
33.211431,6.094519,0.252144,12.841681
33.311431,2.035096,0.187537,7.891828
33.411431,-0.173480,3.454339,16.764414
33.511431,-0.846162,1.788037,9.959227
33.611431,-4.230211,-8.699406,14.003995
33.711431,1.442573,4.069593,5.453542
33.811431,1.795813,-7.401898,15.139987
33.911431,-0.211765,7.594819,3.909274
34.011431,-5.075177,-0.369093,7.259824
34.111431,-1.496112,-1.600798,3.242574
34.211431,-1.825125,-4.240381,11.906984
34.311431,1.066900,-1.280160,8.722735
34.411431,-5.909674,-4.273880,8.860323
34.511431,-1.604986,3.558426,3.580261
34.611431,-0.276371,-6.883553,19.487745
34.711431,-0.291924,0.524925,10.765907
34.811431,-2.880959,-6.958927,15.434604
34.911431,0.079262,-3.134299,16.556238
35.011431,0.661017,-2.196013,6.017351
35.111431,-1.454238,-3.582056,14.198112
35.211431,3.738486,-0.743869,6.026922
35.311431,4.137190,-1.585245,9.776176
35.411431,-0.935893,-5.162216,15.588941
35.511431,0.241974,2.611467,2.242972
35.611431,-0.124128,-5.679365,13.828122
35.711431,6.418747,-4.986044,11.408978
35.811431,0.399003,-0.308076,6.660123
35.911431,3.069393,0.687936,9.349955
36.011431,-1.482952,3.321238,11.784652
36.111431,1.868794,-8.368000,15.181862
36.211431,-0.470190,2.688037,6.401698
36.311431,0.051745,4.635795,5.348258
36.411431,-0.926321,-4.499105,14.340486
36.511431,1.653440,-6.033502,22.169203
36.611431,-1.372882,7.801798,-1.692922
36.711431,-0.692722,0.426820,11.394622
36.811431,2.285445,-5.059324,10.904990
36.911431,0.068495,-0.171685,10.174581
37.011431,1.383949,-1.458425,6.235097
37.111431,0.950549,-1.256232,7.425228
37.211431,-2.150848,1.373779,11.735599
37.311431,-0.599402,1.992623,7.341180
37.411431,0.431306,-0.554836,13.383954
37.511431,2.231606,-2.511866,13.887942
37.611431,-0.703490,-1.478764,10.901401
37.711431,1.217648,0.007777,8.847162
37.811431,1.710868,1.123430,11.716456
37.911431,-0.199801,-1.177269,7.228717
38.011431,1.464108,3.385844,5.066802
38.111431,1.969293,-3.627519,9.255438
38.211431,-1.102194,-1.803291,8.966804
38.311431,-1.585843,4.116253,2.957828
38.411431,2.370390,1.196710,5.476274
38.511431,2.239981,-3.793820,15.621243
38.611431,1.373181,6.868299,3.230610
38.711431,2.850450,1.914856,7.173682
38.811431,1.777867,3.624229,3.814758
38.911431,2.086840,0.727418,11.989537
39.011431,-0.241675,-4.344469,12.389138
39.111431,2.925824,1.293620,6.888937
39.211431,-1.190728,-3.655037,15.917056
39.311431,-2.248954,7.479964,3.591029
39.411431,0.243171,-2.877070,14.490037
39.511431,-2.177170,2.510968,7.595118
39.611431,-5.014160,-0.770190,4.007380
39.711431,-1.332204,-1.694417,9.192028
39.811431,-0.331406,-2.556133,9.052945
39.911431,1.517050,5.793323,5.221438
40.011431,-0.755235,-4.214060,15.567405
40.111431,0.932603,-0.937687,14.813367
40.211431,0.286241,1.997409,4.142873
40.311431,-0.574277,-0.685245,12.600006
40.411431,-2.746960,4.743472,3.500101
40.511431,1.604388,4.573581,2.265704
40.611431,3.001198,3.286542,13.910674
40.711431,-1.167997,0.524925,10.014262
40.811431,-0.968196,0.298804,4.299603
40.911431,-1.366900,-1.946860,8.442476
41.011431,1.109971,-4.495515,14.116457
41.111431,-3.033202,7.031010,-1.048954
41.211431,1.036990,-2.832803,11.125130
41.311431,-0.626920,1.513759,8.612666
41.411431,-0.841376,4.405785,5.475077
41.511431,-2.974578,-4.111168,16.703398
41.611431,1.527817,-0.164507,8.035697
41.711431,-0.889233,2.774179,10.274182
41.811431,3.039483,-0.839582,5.196313
41.911431,1.212862,5.365905,7.713563
42.011431,6.197411,-5.399105,22.855045
42.111431,0.354437,6.123532,0.119342
42.211431,0.320937,2.805285,7.924131
42.311431,-0.200997,-2.977569,11.295020
42.411431,-0.516850,-8.647960,28.835608
42.511431,0.718445,0.932004,0.480957
42.611431,-5.660521,-0.457627,7.870293
42.711431,1.100399,3.520141,2.171187
42.811431,-1.406381,0.237787,3.917649
42.911431,2.231606,8.481958,9.378669
43.011431,1.496411,-10.273584,21.351456
43.111431,-0.959821,9.632308,-0.389133
43.211431,0.396610,-0.715155,9.415757
43.311431,-4.378566,-2.127518,9.553345
43.411431,-3.497409,0.782453,11.783455
43.511431,-0.921536,8.903095,-5.413163
43.611431,-1.022034,-0.835992,15.502799
43.711431,2.449353,-1.851147,5.337490
43.811431,-1.766501,3.642175,11.323734
43.911431,3.484847,9.219247,1.166800
44.011431,2.710470,-3.815356,13.544273
44.111431,0.404985,-5.128716,17.140387
44.211431,5.062614,-3.564109,18.928722
44.311431,1.645066,2.538486,6.081957
44.411431,1.466501,-3.070889,10.989935
44.511431,0.750748,0.740579,2.600998
44.611431,-3.270091,1.300798,11.558530
44.711431,-3.030809,-3.159423,15.581762
44.811431,-0.259621,2.526522,4.803591
44.911431,-0.504886,-0.862313,14.567803
45.011431,2.742773,-1.048954,10.072886
45.111431,-4.353442,-0.381057,-2.769094
45.211431,0.381954,1.217049,11.699706
45.311431,0.319741,0.106182,2.401197
45.411431,2.720041,2.259423,8.948857
45.511431,4.511966,-2.018645,14.060225
45.611431,-2.870191,-4.539783,8.091928
45.711431,-0.824627,-6.068198,15.539887
45.811431,-2.818745,-2.109572,13.801801
45.911431,-5.114658,-1.648954,8.917751
46.011431,-5.481060,-3.714857,11.498710
46.111431,0.476770,2.449951,5.447560
46.211431,2.965306,-2.639882,13.903496
46.311431,1.510768,-2.001895,5.728716
46.411431,-1.797608,4.942076,-0.867996
46.511431,3.366402,-4.451248,15.984056
46.611431,2.070988,1.322334,6.730711
46.711431,0.158225,-2.230709,19.760826
46.811431,4.407878,-0.930509,11.909377
46.911431,-1.304687,-1.058525,15.435800
47.011431,2.481656,-0.918545,4.756931
47.111431,1.271486,1.099502,6.577570
47.211431,-8.612666,-0.943669,7.416554
47.311431,-2.557927,1.654936,6.566803
47.411431,-1.543969,-1.742274,14.356038
47.511431,0.853639,2.644966,10.596017
47.611431,3.245565,-9.148359,17.045870
47.711431,2.665006,3.050849,11.213664
47.811431,0.285045,1.397708,1.986940
47.911431,-1.043570,3.445964,2.907279
48.011431,0.446860,3.091527,10.741979
48.111431,4.800302,-5.153841,16.277176
48.211431,0.818944,-0.583550,10.412966
48.311431,-1.023231,2.209173,9.873085
48.411431,0.653839,-0.178863,9.196814
48.511431,-2.830709,-2.755036,5.532505
48.611431,-2.544767,-3.605984,11.448460
48.711431,2.146661,6.905387,-0.403490
48.811431,0.942174,-0.410967,11.912967
48.911431,-0.022433,-8.979665,21.476181
49.011431,5.752047,6.818049,5.265705
49.111431,1.647458,-1.517050,8.577971
49.211431,0.135494,-1.720739,12.292229
49.311431,2.356033,3.061617,7.839186
49.411431,1.462912,-0.709173,7.336394
49.511431,1.431805,-1.738685,11.286645
49.611431,-1.473381,-0.461217,9.929317
49.711431,-1.225424,-0.284148,8.419744
49.811431,-4.255336,6.663413,-2.600101
49.911431,-1.083051,1.164108,9.533006
50.011431,-1.269691,-0.642174,13.822140
50.111431,-3.090630,7.630712,2.717050
50.211431,1.691726,-8.262417,20.494526
50.311431,5.957829,1.707578,11.351551
50.411431,-0.368495,-1.265803,13.771891
50.511431,0.177368,3.028117,4.044468
50.611431,-0.373280,-2.121536,10.484751
50.711431,4.626822,1.128216,12.426227
50.811431,0.415753,5.554938,7.751848
50.911431,-0.634098,1.870589,8.853145
51.011431,0.905085,2.501397,10.704890
51.111431,-6.339185,-2.847160,6.399305
51.211431,1.205683,2.979064,7.765008
51.311431,-0.238086,-1.540978,11.364711
51.411431,4.565804,7.623533,-2.522334
51.511431,1.095614,-1.695614,14.984453
51.611431,-2.476571,-3.677768,4.190730
51.711431,-3.316751,-0.501895,9.168100
51.811431,-0.221336,-2.105983,15.438192
51.911431,0.525823,-5.083252,11.541780
52.011431,-0.232104,-4.606782,7.632207
52.111431,1.299004,-7.024729,19.252052
52.211431,2.248356,-5.856433,24.268904
52.311431,-3.869792,4.022933,0.983749
52.411431,1.062114,-1.274178,10.334002
52.511431,-1.676770,-2.111965,11.621940
52.611431,1.063311,-0.273380,11.096416
52.711431,-0.836591,-0.153739,2.688336
52.811431,0.603590,3.778566,5.315955
52.911431,0.588036,-0.016152,3.582654
53.011431,-0.673580,0.849452,10.894222
53.111431,-0.938286,-3.750750,13.086048
53.211431,-2.906083,2.870191,3.665206
53.311431,1.080060,0.412463,6.803692
53.411431,3.062215,-2.258226,26.648567
53.511431,-0.106182,0.369392,10.824831
53.611431,-0.333799,3.159722,0.334995
53.711431,-2.667997,-4.300201,14.702998
53.811431,6.737291,-2.642274,18.610178
53.911431,-0.589831,2.740679,2.437090
54.011431,1.848456,-3.565306,10.290932
54.111431,0.625125,-5.837291,21.430418
54.211431,6.026324,5.066503,8.145766
54.311431,4.537091,3.287738,13.860425
54.411431,-1.032802,5.273781,5.235795
54.511431,1.954936,-8.725727,18.622143
54.611431,2.642274,4.543372,6.884151
54.711431,5.580960,6.377470,4.165605
54.811431,-2.980560,-2.590829,11.637493
54.911431,-1.190728,7.624729,-0.981655
55.011431,3.873980,2.845963,12.853645
55.111431,5.931508,-14.798411,25.945974
55.211431,5.105685,9.444172,-2.419443
55.311431,-10.389038,1.990230,-12.468699
55.411431,4.753641,2.362613,13.464114
55.511431,4.617250,-0.906581,12.086446
55.611431,-0.095414,4.538586,-2.263909
55.711431,-3.704688,-8.295917,16.364513
55.811431,-3.383750,5.819644,4.642076
55.911431,-2.673979,0.557229,4.012166
56.011431,7.423134,4.263412,5.367400
56.111431,-1.554736,-3.029014,10.593624
56.211431,1.226022,0.656830,14.586946
56.311431,1.776671,1.877768,5.550451
56.411431,-2.553142,0.963111,6.740282
56.511431,3.444169,-0.486341,9.845568
56.611431,-1.677967,3.153740,5.775676
56.711431,1.606780,-9.059825,21.673590
56.811431,-0.934696,1.929213,11.735599
56.911431,-1.441077,-0.824028,7.344769
57.011431,1.477269,36.762131,1.498505
57.111431,0.446860,-14.330316,21.924835
57.211431,2.192125,-14.684752,38.840298
57.311431,-6.219544,-3.085246,9.163314
57.411431,-3.589832,-4.430610,15.320944
57.511431,-0.579063,-5.242375,6.343074
57.611431,1.210469,5.101199,-0.368794
57.711431,0.867996,3.913760,6.955935
57.811431,-0.849751,-0.782154,12.973287
57.911431,0.452842,-0.091525,9.847960
58.011431,1.513161,-7.733304,16.802700
58.111431,0.319741,-0.002991,3.592225
58.211431,1.928615,-15.069997,25.141388
58.311431,-5.344668,-1.017847,2.389233
58.411431,1.645066,-4.115954,7.018149
58.511431,-0.510868,-2.430510,8.610273
58.611431,-5.625825,-3.207280,8.532207
58.711431,-1.922334,-3.436093,11.680564
58.811431,-2.259722,-3.643072,9.928121
58.911431,-0.416351,-1.162912,12.139089
59.011431,-0.049950,4.284947,7.443174
59.111431,-2.975774,-4.157828,14.213666
59.211431,-0.091825,3.749852,7.056434
59.311431,1.363610,2.896512,8.705986
59.411431,0.396610,-5.827720,16.219748
59.511431,-2.580659,5.661418,2.268097
59.611431,-0.040379,-3.239583,12.962519
59.711431,-3.942774,3.320041,3.023631
59.811431,-0.490529,-3.546163,12.216855
59.911431,-2.091028,-3.485146,12.451352
60.011431,2.061417,-1.870290,9.728319
60.111431,-0.800698,-4.074080,15.483656
60.211431,0.034995,1.892125,6.465108
60.311431,2.356033,1.560419,6.772585
60.411431,2.474478,-2.576472,15.005989
60.511431,0.249153,-2.138286,12.343675
60.611431,0.330509,-0.605085,8.885448
60.711431,2.710470,2.735893,9.039784
60.811431,-2.342274,-0.086740,10.416555
60.911431,-2.828316,-2.497509,11.696117
61.011431,0.377169,-3.034997,17.780766
61.111431,3.405884,0.601496,9.822836
61.211431,2.668596,-0.013759,8.471190
61.311431,-2.749353,3.394219,3.210271
61.411431,1.031007,1.093520,9.044571
61.511431,-0.340977,-3.667001,14.218452
61.611431,0.694517,-1.562513,12.032608
61.711431,-0.905982,2.958725,2.216651
61.811431,0.115155,1.591526,8.137392
61.911431,-0.099003,-1.519442,7.721938
62.011431,0.432503,0.680758,9.871889
62.111431,3.714558,-3.469593,10.567303
62.211431,2.507977,-2.038984,10.100404
62.311431,0.012263,0.733400,8.733503
62.411431,-0.922732,-0.119043,10.035797
62.511431,0.190528,-0.643370,11.349157
62.611431,5.877670,-2.575275,16.975283
62.711431,2.268695,1.762912,8.835198
62.811431,1.212862,1.136591,7.638189
62.911431,-0.222533,-1.194018,11.473584
63.011431,-0.659223,-2.127518,11.618350
63.111431,1.443769,-3.859623,15.689439
63.211431,0.413360,4.931308,0.990928
63.311431,1.613959,-1.644168,12.245569
63.411431,0.033799,-1.155733,13.070495
63.511431,-1.152443,1.305584,9.937692
63.611431,1.688136,-3.792624,13.095619
63.711431,0.255135,0.298804,8.829216
63.811431,0.839283,1.418046,7.037292
63.911431,-4.858626,1.562812,5.060820
64.011431,-0.760020,-0.232702,8.958429
64.111431,2.608476,-0.367896,9.445667
64.211431,1.206880,0.955933,10.503893
64.311431,-0.113360,-2.839981,9.499506
64.411431,-0.344566,4.275376,3.479463
64.511431,-0.263211,-2.550151,11.559726
64.611431,-1.114158,-0.054437,7.619046
64.711431,-0.333799,-0.978365,13.664214
64.811431,4.867301,-1.635793,12.808182
64.911431,1.947758,-1.131805,9.292527
65.011431,-0.311067,0.479462,7.556833
65.111431,0.119940,1.063610,5.311169
65.211431,3.446562,-2.236691,14.559428
65.311431,2.512763,-1.445265,11.777473
65.411431,-0.825823,-0.017348,8.889037
65.511431,2.493620,0.915255,8.054839
65.611431,1.926222,-0.777368,12.761521
65.711431,0.354437,2.034497,12.751950
65.811431,-1.191925,0.076271,9.337991
65.911431,-0.131306,3.523731,5.075177
66.011431,0.974776,-1.732703,5.671289
66.111431,-0.090628,4.968397,0.939482
66.211431,0.329312,3.227918,5.317151
66.311431,-0.719043,-3.772285,13.031013
66.411431,0.258724,-0.747458,13.642678
66.511431,5.196612,-4.022634,12.704094
66.611431,4.496413,0.238983,9.457631
66.711431,1.046561,0.637687,6.631409
66.811431,1.884348,-1.873879,14.596518
66.911431,0.057727,0.544068,11.514262
67.011431,-2.152045,3.318845,6.818049
67.111431,0.142672,-1.384248,12.182159
67.211431,-1.074677,-1.369891,9.564112
67.311431,0.301795,-2.086840,12.926626
67.411431,-1.813161,1.274477,2.714657
67.511431,-2.562713,1.617847,8.623434
67.611431,-0.640080,1.238585,4.686343
67.711431,0.717249,-2.602793,13.945371
67.811431,3.292225,-0.399003,8.361120
67.911431,4.825426,2.420041,5.064409
68.011431,0.615554,0.882952,7.745866
68.111431,1.872384,-0.583550,9.328419
68.211431,-0.257228,-0.559621,12.432209
68.311431,2.082055,-1.109073,15.573387
68.411431,0.834497,-3.247958,14.607285
68.511431,-0.460618,2.023730,5.378168
68.611431,-0.157627,-0.242273,8.940483
68.711431,-2.324328,-0.716351,7.486245
68.811431,-2.236990,4.572385,4.821537
68.911431,-0.604188,-3.129513,14.406288
69.011431,0.348455,-1.051346,10.300504
69.111431,3.911069,-4.436892,14.857634
69.211431,3.043072,2.636591,7.811668
69.311431,0.524626,0.274875,10.663016
69.411431,0.215653,-1.200001,11.672189
69.511431,0.014656,2.113461,8.073982
69.611431,-1.309472,-1.452443,11.339288
69.711431,-2.085046,0.542872,7.392625
69.811431,-1.773680,-0.602692,7.362715
69.911431,1.259522,-3.549752,13.805390
70.011431,0.000299,3.303292,3.451946
70.111431,-0.485743,2.040479,5.319544
70.211431,1.838884,-0.841974,15.084952
70.311431,0.213260,-0.706780,10.422537
70.411431,-0.613759,-1.509871,13.700106
70.511431,-0.362513,-4.197310,12.756736
70.611431,-0.216550,1.348655,7.255038
70.711431,0.854836,0.096610,11.939288
70.811431,1.622334,0.961915,5.928816
70.911431,-2.014457,2.264208,5.446363
71.011431,-0.177069,-0.926920,10.989935
71.111431,0.147458,-1.349552,9.477970
71.211431,0.466002,0.665205,10.430912
71.311431,0.694517,0.030508,13.707285
71.411431,-0.131306,-2.043770,10.300504
71.511431,2.290230,-0.299701,10.580463
71.611431,1.057328,-1.117448,12.111571
71.711431,-3.914060,1.086342,6.651748
71.811431,-0.150449,-0.538086,8.927322
71.911431,-0.656830,1.431207,11.559726
72.011431,0.311366,-0.824028,11.577672
72.111431,2.120340,-4.363611,10.834402
72.211431,-2.981756,3.300899,3.802794
72.311431,0.354437,1.829911,6.111867
72.411431,1.865205,-1.763809,9.971191
72.511431,-2.614159,-1.231107,13.337295
72.611431,5.313861,0.451944,12.381960
72.711431,0.560519,0.437587,11.605190
72.811431,0.383151,1.694417,7.190432
72.911431,0.334098,2.793321,5.178367
73.011431,-1.333400,-3.025425,12.632309
73.111431,0.761516,-4.009473,15.396318
73.211431,-0.096610,0.794417,9.466006
73.311431,-0.744467,-1.605584,9.985548
73.411431,0.585643,0.195912,8.589934
73.511431,-4.555635,1.288834,3.573082
73.611431,0.020638,0.262911,9.034999
73.711431,-0.133699,-0.364307,8.381459
73.811431,1.130310,-0.047258,10.554143
73.911431,6.903593,2.059622,9.703195
74.011431,1.349253,0.620937,10.901401
74.111431,-0.872483,2.261816,8.006983
74.211431,-1.439881,-2.849553,13.166207
74.311431,-3.407679,3.532105,3.195914
74.411431,0.461217,-1.104288,9.820443
74.511431,2.684149,3.105884,13.318151
74.611431,1.895115,-1.231107,11.846865
74.711431,2.576173,-3.075674,11.600404
74.811431,-0.040379,3.468696,5.136194
74.911431,0.040977,-1.205983,8.650951
75.011431,-0.172283,-0.967598,15.850058
75.111431,-0.122931,0.366999,12.454941
75.211431,-1.319044,-2.635096,16.929520
75.311431,0.962812,-0.330808,7.068398
75.411431,1.418645,0.825524,11.120344
75.511431,1.568495,-3.287439,10.440483
75.611431,2.065006,-0.486341,7.215557
75.711431,0.117547,-1.717149,16.672291
75.811431,0.413360,-0.369093,8.536993
75.911431,-1.339383,-1.719542,12.224033
76.011431,-2.939583,-0.949651,7.237092
76.111431,-2.453840,1.748555,5.404489
76.211431,0.430110,-0.460020,11.936894
76.311431,-0.538385,1.189532,10.184153
76.411431,-0.519243,-0.147757,9.489935
76.511431,1.117149,-2.188535,14.504394
76.611431,1.716850,-0.924527,10.785349
76.711431,-0.150449,1.406082,6.506982
76.811431,2.192125,-1.191626,8.312068
76.911431,1.446162,-2.780161,14.127225
77.011431,0.224028,3.270988,8.216354
77.111431,2.168196,1.462314,11.876775
77.211431,2.813361,-0.426521,6.544071
77.311431,0.668196,1.095913,7.945667
77.411431,0.188136,0.973879,9.567701
77.511431,1.490429,1.556830,5.157729
77.611431,1.367199,2.783750,9.749855
77.711431,-4.197908,3.342773,1.660021
77.811431,1.282254,-4.008277,15.637993
77.911431,0.915853,0.879362,10.249058
78.011431,1.075275,-0.052044,10.101600
78.111431,-4.427619,0.916451,8.543274
78.211431,-0.625723,4.171288,4.083053
78.311431,-0.011665,-5.972486,18.212969
78.411431,0.543769,5.027021,4.244568
78.511431,-1.017249,-1.079163,11.064113
78.611431,-0.006879,0.906880,10.371092
78.711431,-0.480957,2.789732,5.271688
78.811431,-0.779163,7.072885,4.513761
78.911431,1.182952,5.404190,2.907279
79.011431,1.333699,4.149753,7.640582
79.111431,2.283052,-4.343272,14.350057
79.211431,-0.076271,0.435195,15.393926
79.311431,3.087339,2.057229,9.090034
79.411431,-0.885643,2.556432,6.534500
79.511431,1.513161,-0.176471,9.248260
79.611431,-0.698704,-0.925723,10.741979
79.711431,2.132304,-2.274976,13.569398
79.811431,0.535394,2.708376,7.793723
79.911431,-0.607777,1.592723,9.384650
80.011431,0.547358,1.948356,7.530512
80.111431,-0.530010,-4.936991,12.347264
80.211431,0.535394,-0.425324,6.384948
80.311431,-1.387239,-2.209173,12.109179
80.411431,-0.458226,2.446362,4.443172
80.511431,-4.998607,1.184746,6.945168
80.611431,-1.075873,2.920440,6.158527
80.711431,-0.580260,-1.320838,8.629416
80.811431,1.349253,0.625723,9.221938
80.911431,-2.778067,3.311666,-0.210867
81.011431,-2.338685,-2.316850,5.644968
81.111431,3.566203,7.095616,5.946763
81.211431,0.615554,-2.802893,11.620743
81.311431,-2.811567,0.739382,7.569993
81.411431,-1.508076,-2.309672,8.414959
81.511431,0.161815,-0.986740,13.510774
81.611431,-0.465404,-4.010670,10.988739
81.711431,-7.983952,2.946761,3.095415
81.811431,-5.953941,-2.171786,13.570595
81.911431,2.663810,5.953642,4.549653
82.011431,0.033799,-2.885445,11.456835
82.111431,-1.711466,-2.191227,12.113964
82.211431,-4.700700,1.654936,3.491726
82.311431,0.890728,7.130312,8.175676
82.411431,3.113661,-4.810172,19.973787
82.511431,2.892324,3.876672,10.476376
82.611431,3.328117,-0.682852,11.510674
82.711431,-0.530010,0.945165,10.937293
82.811431,0.005085,-0.596710,7.489834
82.911431,-3.909274,-0.276969,11.394622
83.011431,2.456532,0.536890,12.760324
83.111431,1.596013,-0.977169,4.243372
83.211431,-2.131706,-0.849153,13.883157
83.311431,-4.349853,3.621836,-1.467698
83.411431,1.101596,0.774078,7.617850
83.511431,0.573679,4.080361,6.712765
83.611431,0.845265,-1.180858,7.142576
83.711431,-2.988935,-3.538985,15.189040
83.811431,-1.681556,6.082854,8.376674
83.911431,-0.093021,-9.405587,15.824634
84.011431,-5.308776,3.479463,-0.445663
84.111431,-3.439982,1.407279,3.585047
84.211431,2.439782,-1.428515,11.030613
84.311431,7.806285,-1.549353,11.716456
84.411431,3.972085,-6.029913,15.788741
84.511431,-4.810770,1.605883,11.123934
84.611431,-3.795615,6.602396,-0.633500
84.711431,-2.016850,8.379964,3.806383
84.811431,-3.353840,-2.111965,13.911871
84.911431,-0.943071,-0.868295,15.080167
85.011431,-0.783949,1.651347,6.991828
85.111431,0.944567,2.010569,2.383251
85.211431,0.588036,-11.785549,24.068806
85.311431,-6.335596,5.746663,1.798804
85.411431,0.023031,-5.985646,15.056238
85.511431,1.527817,-3.167798,8.696415
85.611431,-2.693122,-1.183251,14.187345
85.711431,1.092024,-3.797410,15.332909
85.811431,0.997508,0.070289,6.067600
85.911431,5.173881,-4.511069,16.776379
86.011431,0.164207,-5.038985,19.646868
86.111431,5.523532,-5.397909,17.220547
86.211431,5.640780,-0.544068,12.337692
86.311431,-3.859025,-1.950450,6.776175
86.411431,0.194118,-1.628615,4.764110
86.511431,1.261915,-1.432104,8.095517
86.611431,0.712463,-0.077169,10.337592
86.711431,3.243172,-3.336791,11.979965
86.811431,1.690529,-2.615953,8.934501
86.911431,-1.773680,0.064307,8.450851
87.011431,2.682952,-2.200799,4.649254
87.111431,3.918247,-2.097608,10.863115
87.211431,0.085244,0.783649,7.018149
87.311431,4.926224,-1.709971,15.222540
87.411431,3.041876,-0.746262,9.661021
87.511431,3.031108,-4.326522,11.335698
87.611431,1.563710,0.429213,7.952845
87.711431,2.467299,-7.097710,16.362122
87.811431,2.478067,-2.197209,10.843973
87.911431,1.533799,4.638187,3.026023
88.011431,1.946561,-3.003890,11.440085
88.111431,2.088037,-8.704191,9.361918
88.211431,5.512764,3.794119,4.450351
88.311431,1.718047,-1.397408,12.167802
88.411431,1.920240,-0.521336,11.347961
88.511431,1.263111,-1.558924,9.645468
88.611431,-3.465106,-2.576472,12.713665
88.711431,1.601995,3.332006,10.310075
88.811431,2.885146,1.336691,7.659724
88.911431,-3.812365,-2.635096,6.634998
89.011431,-2.181955,-1.372284,10.903793
89.111431,2.014757,0.398106,13.450953
89.211431,-5.690431,1.300798,8.204391
89.311431,-1.671985,5.169693,1.526023
89.411431,-0.459422,-2.854338,7.910971
89.511431,3.507579,3.487838,9.742677
89.611431,0.583251,4.148556,9.877871
89.711431,-1.240978,-2.326422,8.668898
89.811431,6.618846,8.107183,11.126327
89.911431,-0.509671,-2.103590,12.662219
90.011431,-2.235794,3.152544,9.753445
90.111431,-1.553540,2.148157,8.740682
90.211431,1.599602,-0.748654,14.833706
90.311431,1.325325,2.014158,5.069195
90.411431,-5.136194,-2.869892,13.892728
90.511431,-2.584249,1.063610,8.180463
90.611431,2.132304,-1.013061,12.439387
90.711431,4.509573,-7.708179,22.037598
90.811431,0.391526,-5.382355,13.376776
90.911431,-2.451447,-2.544169,10.694122
91.011431,1.154238,6.790532,-4.341777
91.111431,3.179463,-3.023032,13.917853
91.211431,2.346462,-3.137888,14.686248
91.311431,-1.196710,1.650150,10.511071
91.411431,-5.150551,2.237887,4.612165
91.511431,3.725326,2.471487,9.572487
91.611431,2.622833,-0.220738,11.171790
91.711431,1.691726,-0.360718,13.288241
91.811431,-0.021236,2.740679,9.457631
91.911431,-1.351347,-2.193620,14.874384
92.011431,-1.907977,3.575176,0.598206
92.111431,2.596512,1.463510,8.023732
92.211431,3.923033,5.979963,-4.703392
92.311431,-1.028016,-5.611169,19.518852
92.411431,-2.943172,-0.700798,9.766604
92.511431,-0.180658,0.350249,7.999804
92.611431,2.806183,-3.556931,13.179368
92.711431,2.794219,5.960820,3.089433
92.811431,2.259124,-7.288239,20.909979
92.911431,-0.598206,4.009773,4.783252
93.011431,-5.747859,-0.941277,7.408179
93.111431,1.871187,-3.111567,14.530715
93.211431,-0.653241,-0.600299,7.583154
93.311431,4.246064,8.775079,-0.946960
93.411431,0.911067,-6.717251,17.816658
93.511431,-1.087837,-2.801696,7.943274
93.611431,-4.681558,-0.489930,6.025726
93.711431,-1.917548,2.774179,7.337591
93.811431,3.392723,-1.843969,15.973288
93.911431,4.727320,3.168097,0.500100
94.011431,7.406384,-9.693026,20.395224
94.111431,-0.713061,0.905683,5.769693
94.211431,-1.837090,4.690830,5.734998
94.311431,-1.978565,-2.721238,9.505488
94.411431,0.544965,3.625425,11.602797
94.511431,-3.592225,1.779662,11.021042
94.611431,-4.057629,-2.021038,14.151452
94.711431,-1.529612,3.985844,-2.935395
94.811431,0.921835,-4.734798,13.442578
94.911431,0.304188,-2.613560,9.079267
95.011431,1.123131,5.611169,6.983453
95.111431,1.476072,1.717149,5.233402
95.211431,-0.441476,-5.673382,16.884056
95.311431,6.324230,8.892327,-4.931009
95.411431,2.848057,-6.087341,16.138391
95.511431,0.645464,-5.836094,12.899109
95.611431,3.532704,2.949154,5.696414
95.711431,6.413961,2.329114,8.826823
95.811431,1.968097,-0.885045,11.100005
95.911431,-1.516451,-0.042473,10.035797
96.011431,0.597607,1.215853,14.596518
96.111431,-1.924727,-1.402194,10.068100
96.211431,0.353240,2.772982,3.587439
96.311431,-7.631011,-76.167435,48.174999
96.411431,4.482056,24.611975,-39.729229
96.511431,16.640287,4.955236,73.791962
96.611431,-1.408774,-1.601995,11.492727
96.711431,-12.622738,-12.258131,22.252951
96.811431,-0.935893,2.107479,1.189532
96.911431,-5.143372,4.932505,9.245867
97.011431,-7.237092,-4.188935,10.204492
97.111431,-2.380559,-5.777470,13.296617
97.211431,5.012365,2.111068,9.983155
97.311431,1.313361,4.112664,10.891829
97.411431,1.370788,-2.784946,17.808283
97.511431,-1.193121,-1.773381,10.258629
97.611431,1.502393,1.438385,4.471887
97.711431,3.209672,-6.355636,8.843574
97.811431,3.966104,-3.297010,13.743176
97.911431,-1.067498,-4.210471,9.975977
98.011431,-0.503689,-4.200899,14.139189
98.111431,-2.149652,3.166901,1.627718
98.211431,-2.500500,-3.808177,19.342979
98.311431,-0.036790,-0.138186,6.853941
98.411431,0.218046,-1.748256,8.458030
98.511431,1.941776,0.171984,11.975180
98.611431,-1.742573,-1.640579,11.718849
98.711431,0.306580,1.517349,9.712767
98.811431,1.557728,0.416052,5.347061
98.911431,-2.921636,0.665205,8.339585
99.011431,0.123529,1.243370,11.362318
99.111431,-0.543171,0.282054,6.177670
99.211431,-1.286441,-5.192126,16.616060
99.311431,1.866402,-3.527021,10.584053
99.411431,2.216053,-3.586841,16.381264
99.511431,-0.491725,2.284547,2.714657
99.611431,1.460519,-0.608674,11.755938
99.711431,0.552144,-0.953241,11.004292
99.811431,0.827318,1.560419,7.186843
99.911431,0.632303,-0.136989,14.604892
100.011431,-7.112665,-0.230309,9.027821
100.111431,-3.066701,-0.894617,11.244771
100.211431,3.391527,2.300101,8.738289
100.311431,2.935395,-0.649352,12.379567
100.411431,4.278367,-3.558127,10.436894
100.511431,0.583251,2.807678,3.095415
100.611431,-0.366102,-2.743969,13.895121
100.711431,-0.503689,-2.252244,10.271790
100.811431,0.485145,1.229014,7.865507
100.911431,1.431805,-6.397511,12.326925
101.011431,-1.709074,4.636991,6.212366
101.111431,-2.038386,-0.412164,17.117655
101.211431,0.554537,0.335892,7.359126
101.311431,0.322134,-0.770190,12.117553
101.411431,0.800997,0.967897,4.020540
101.511431,-4.347460,-2.761018,6.280561
101.611431,3.439384,2.184049,11.194522
101.711431,2.023132,1.273281,9.701999
101.811431,2.078465,-4.801797,12.737593
101.911431,2.414657,-1.497907,11.434103
102.011431,0.573679,0.278465,8.932108
102.111431,-1.041177,5.959624,-0.170190
102.211431,-6.193223,-1.194018,9.928121
102.311431,-3.512963,1.529313,4.203890
102.411431,-0.471386,-1.806880,13.047763
102.511431,0.139083,1.495813,5.953941
102.611431,-1.603789,-1.188036,6.165706
102.711431,0.454038,2.072783,1.957030
102.811431,-1.904388,-3.246761,14.231612
102.911431,0.967598,0.362214,8.622237
103.011431,5.813064,-0.214756,12.900305
103.111431,1.731207,1.841875,5.379364
103.211431,1.339682,-11.783156,23.985056
103.311431,-1.852942,7.251150,5.625825
103.411431,-5.458328,1.530509,1.834996
103.511431,-1.195514,-4.117150,17.730516
103.611431,0.479163,2.205584,6.417251
103.711431,1.853241,1.351048,4.979464
103.811431,-3.969095,-1.023829,8.740682
103.911431,1.080060,-0.545264,9.942477
104.011431,1.960918,2.665305,8.957232
104.111431,2.784647,-3.359523,11.286645
104.211431,5.181059,-3.656233,10.160224
104.311431,-1.258924,3.056831,2.702693
104.411431,2.290230,-7.534699,15.980466
104.511431,-0.922732,7.375876,-0.701695
104.611431,5.001597,-3.806981,21.088245
104.711431,2.907878,-1.822434,8.015358
104.811431,-1.443470,-8.299505,15.745670
104.911431,4.027121,1.856232,10.698908
105.011431,1.435395,-0.227916,7.226325
105.111431,0.781855,-0.693619,9.012267
105.211431,1.131506,-2.259423,14.893526
105.311431,-4.145266,-2.577668,9.235099
105.411431,-1.215853,3.667300,3.445964
105.511431,-2.270490,-3.241976,13.096816
105.611431,-2.330310,-1.414158,11.529816
105.711431,-1.910370,-1.585245,6.917650
105.811431,-0.012861,-2.636292,12.978072
105.911431,2.092823,-1.083949,13.497614
106.011431,5.912365,1.006182,10.983953
106.111431,0.066102,-0.430110,9.275777
106.211431,1.751546,-1.174876,10.586446
106.311431,3.011966,-3.252743,14.340486
106.411431,5.771189,-1.779363,14.655142
106.511431,1.111167,-0.134596,6.789335
106.611431,1.683351,-0.020937,8.905787
106.711431,4.103691,3.072384,9.724730
106.811431,1.167398,2.509772,7.996215
106.911431,-2.235794,-6.763911,15.663118
107.011431,1.639084,-5.405087,16.657934
107.111431,2.843271,-2.656631,12.962519
107.211431,1.883151,1.147358,6.456733
107.311431,1.630709,1.339083,12.314960
107.411431,-6.492625,0.690329,7.028916
107.511431,0.509073,-3.400201,14.118850
107.611431,-1.054338,7.511070,-1.639084
107.711431,0.283849,0.866202,10.588839
107.811431,-1.286441,-13.571492,-9.008080
107.911431,-3.317948,-4.877171,1.654039
108.011431,-0.101396,-15.258133,27.188448
108.111431,3.214458,-1.891825,9.442079
108.211431,-0.702293,3.603890,3.673581
108.311431,-0.649651,-0.815653,6.066403
108.411431,-4.363013,-3.767499,11.732010
108.511431,5.325825,3.160919,11.712867
108.611431,2.877967,-0.499502,8.959625
108.711431,2.588137,0.940379,7.465906
108.811431,-2.981756,-2.869892,10.872687
108.911431,1.609173,2.218745,8.231908
109.011431,-3.644867,1.251745,-1.418645
109.111431,-1.783251,-4.460820,13.830515
109.211431,2.615654,0.107378,9.897014
109.311431,0.107976,-2.297708,7.665707
109.411431,-0.256032,0.238983,8.987143
109.511431,-0.311067,-1.192822,6.822834
109.611431,4.022335,-5.171787,14.151452
109.711431,4.388736,-1.088734,10.406984
109.811431,2.358426,0.502194,9.174082
109.911431,1.802992,0.583550,9.165708
110.011431,-3.985844,-3.292225,12.106785
110.111431,-0.779163,-2.625525,8.897412
110.211431,-0.412762,-2.655435,13.470096
110.311431,-3.051148,0.140877,8.483154
110.411431,0.594018,-1.359123,13.684553
110.511431,2.065006,9.768699,-2.406282
110.611431,6.685845,8.442178,0.658026
110.711431,1.975275,-5.315356,19.997717
110.811431,0.722034,-7.266703,11.083256
110.911431,8.388040,5.599205,8.327621
111.011431,3.144767,2.233102,9.509077
111.111431,-1.506880,-2.211566,5.895317
111.211431,2.419443,-0.073579,14.122439
111.311431,1.494019,4.485944,4.704289
111.411431,-3.711866,-9.293125,17.858532
111.511431,0.206082,2.091925,7.517352
111.611431,0.576072,-1.375873,14.748760
111.711431,1.990828,3.704389,6.515357
111.811431,-4.304389,-7.788339,18.630518
111.911431,-2.180759,-2.746362,14.268701
112.011431,-0.415155,-3.474379,8.079964
112.111431,4.320241,-0.611067,9.943673
112.211431,5.595317,-1.975574,10.761122
112.311431,-0.620937,-4.222435,10.432109
112.411431,0.475574,-2.709273,14.134403
112.511431,-4.632205,-1.484746,6.754639
112.611431,1.452144,-0.509372,10.328021
112.711431,-0.926321,-1.239482,9.111869
112.811431,6.321837,1.752144,10.931312
112.911431,0.267099,-1.080359,9.305687
113.011431,-1.978565,-1.341177,10.414163
113.111431,-4.260122,-3.432504,8.908179
113.211431,0.847657,3.528516,4.425226
113.311431,1.320539,-3.340380,13.987245
113.411431,3.075375,-0.464806,8.016554
113.511431,4.477270,-3.562913,13.483256
113.611431,-2.043171,-0.091525,10.435698
113.711431,-0.418744,0.069093,10.756336
113.811431,-4.880162,2.263012,3.583850
113.911431,1.854438,-2.824428,11.435300
114.011431,-0.593420,2.034497,4.727021
114.111431,6.416354,-0.363111,17.261225
114.211431,1.737189,3.713960,3.225824
114.311431,-0.048754,-2.285744,8.405388
114.411431,-2.415555,-4.355237,7.377072
114.511431,-2.815156,-2.799303,12.537792
114.611431,-2.052743,3.758227,2.303989
114.711431,0.940978,1.189532,11.251949
114.811431,-6.424430,-6.007181,18.030815
114.911431,-1.035195,0.508176,10.399805
115.011431,-3.063112,1.815554,5.158926
115.111431,0.288634,2.094318,3.671188
115.211431,0.183350,0.496212,9.223135
115.311431,0.856032,-4.787440,13.400704
115.411431,3.280261,-0.505783,5.180760
115.511431,1.655833,-2.886642,12.018250
115.611431,1.269093,-2.886642,12.399906
115.711431,-0.597009,0.259322,8.940483
115.811431,6.553941,1.657329,9.369097
115.911431,3.125625,-1.399801,11.108380
116.011431,-1.326222,5.344369,2.792424
116.111431,4.622036,-2.156232,8.972786
116.211431,3.432205,2.615056,4.360620
116.311431,0.633500,-1.997110,10.107582
116.411431,-1.985744,-0.244666,7.968399
116.511431,-0.870090,-4.670192,14.117654
116.611431,3.195016,1.109073,8.087142
116.711431,0.282652,-1.083949,7.167700
116.811431,2.496013,-3.501896,10.424930
116.911431,2.485245,1.281656,11.720045
117.011431,2.200500,1.278066,6.727122
117.111431,-0.848555,-1.196411,10.403395
117.211431,-3.561118,1.586740,3.707080
117.311431,-3.273680,1.474278,6.921239
117.411431,-0.448654,-0.840778,6.912865
117.511431,-0.081057,1.532902,9.290133
117.611431,-0.709472,-2.899802,11.863615
117.711431,-0.375673,-0.231506,9.375079
117.811431,0.903889,-4.296612,14.722440
117.911431,4.632804,-4.438088,13.344473
118.011431,1.807778,-1.127020,7.517352
118.111431,2.105983,-4.721637,17.079371
118.211431,-1.768894,-2.783750,9.907782
118.311431,-3.984648,3.346362,-1.235594
118.411431,-0.858126,-1.086342,11.460424
118.511431,0.128315,-4.586443,10.194920
118.611431,1.202094,0.544068,10.998310
118.711431,4.027121,1.791626,16.023537
118.811431,-2.162812,-1.171287,11.402996
118.911431,3.003591,-0.636192,8.670094
119.011431,1.531407,2.998207,2.675176
119.111431,-1.362114,-4.747958,11.930913
119.211431,2.645864,-5.095217,15.870397
119.311431,-0.974178,5.412565,3.977469
119.411431,-3.774080,-1.396212,9.891031
119.511431,-2.456233,-6.056234,15.058631
119.611431,0.917049,-0.382253,8.532207
119.711431,-0.116949,0.521336,7.064809
119.811431,2.480460,0.364606,10.442876
119.911431,2.905485,3.037688,5.427221
120.011431,0.799801,-4.478766,11.525030
120.111431,-1.314258,0.885344,9.366704
120.211431,0.769891,0.937986,11.776277
120.311431,1.959722,-1.619941,13.735998
120.411431,1.119542,-2.560918,13.928620
120.511431,2.175375,1.552045,5.006981
120.611431,-0.751645,0.567996,7.946863
120.711431,-0.490529,0.149252,13.926228
120.811431,0.521037,-0.498305,12.705290
120.911431,3.230011,-4.775476,14.676677
121.011431,2.037488,-1.625923,10.389038
121.111431,2.298605,-0.089133,6.888937
121.211431,0.184546,0.541675,10.737193
121.311431,-5.417650,-1.939682,7.781758
121.411431,-3.450749,0.815953,8.817252
121.511431,-1.838286,-12.234203,25.014568
121.611431,-0.138485,5.068896,2.847459
121.711431,1.048954,-6.080163,13.232010
121.811431,2.825325,2.149353,6.838388
121.911431,-1.080659,-6.465706,12.716058
122.011431,0.091226,2.273780,6.729515
122.111431,0.704088,1.206282,11.054542
122.211431,-0.287139,-3.751946,12.889538
122.311431,1.029811,0.188734,9.018250
122.411431,-1.288834,4.506283,2.712265
122.511431,-3.271288,-0.674477,10.162617
122.611431,0.986740,-3.445665,15.440585
122.711431,0.202493,0.893719,9.270991
122.811431,-1.273281,3.634997,4.144070
122.911431,-2.124527,-2.422135,12.633506
123.011431,2.779862,-0.461217,15.446568
123.111431,0.706481,2.816053,7.686046
123.211431,-7.933702,19.721046,-26.216661
123.311431,-6.097510,-8.379964,11.271092
123.411431,2.527120,5.547760,14.285450
123.511431,2.560619,2.874976,11.004292
123.611431,-0.386441,-2.704488,13.352848
123.711431,-1.578665,4.317250,5.539683
123.811431,0.466002,-0.355932,9.038589
123.911431,0.497109,-0.194417,10.708480
124.011431,-0.360120,-1.107877,9.908978
124.111431,-1.933102,1.668097,13.841283
124.211431,0.678963,2.380559,4.171587
124.311431,2.348855,-2.162214,9.645468
124.411431,-2.211865,2.362613,9.244670
124.511431,0.731606,-1.003490,13.904693
124.611431,1.465305,-1.147358,11.698510
124.711431,0.534198,-1.304088,8.924930
124.811431,-0.145663,0.803988,13.443775
124.911431,-3.909274,1.389333,3.066701
125.011431,-0.601795,-3.473182,14.190934
125.111431,1.746760,-1.678864,6.704390
125.211431,0.517448,-0.456431,10.952847
125.311431,-4.715057,2.044069,-0.084048
125.411431,-0.983749,1.625026,10.113564
125.511431,1.412663,-1.824826,11.627922
125.611431,-0.543171,-1.904986,8.747861
125.711431,2.507977,3.925725,1.079462
125.811431,0.814158,-0.998704,10.671391
125.911431,1.866402,-0.529711,10.775478
126.011431,2.830111,-4.603192,10.494322
126.111431,1.058525,-1.252643,6.890133
126.211431,0.602393,-1.659722,11.323734
126.311431,3.428616,-0.910170,9.019445
126.411431,3.203691,-5.433801,12.768700
126.511431,4.277171,0.007777,6.929615
126.611431,1.394717,1.906481,9.032606
126.711431,1.581656,5.090431,5.865407
126.811431,1.855634,-7.745268,19.073488
126.911431,3.185445,-0.789332,11.649457
127.011431,1.112363,-1.681257,7.640582
127.111431,0.356830,0.070289,7.861918
127.211431,-3.358626,-3.556931,14.759528
127.311431,0.564108,-0.122632,6.976274
127.411431,-0.088235,-6.680162,18.956240
127.511431,0.762712,2.995814,7.002595
127.611431,-2.000101,-0.292523,3.389732
127.711431,0.322134,22.824837,-16.288542
127.811431,11.515759,-24.587748,41.628235
127.911431,1.830509,-15.434005,32.251961
128.011431,9.838689,-18.440886,27.769007
128.111431,-7.093523,1.840679,6.278168
128.211431,-1.074677,-0.359522,6.601499
128.311431,2.290230,0.447159,13.508381
128.411431,-1.547558,-0.176471,11.655439
128.511431,-2.484946,-1.845165,9.969995
128.611431,-1.329811,1.617847,6.727122
128.711431,1.641476,-1.761417,5.211867
128.811431,-0.748056,0.047258,10.241879
128.911431,-0.911965,-1.311267,9.640682
129.011431,-0.501296,-2.635096,8.314461
129.111431,2.601297,-6.110073,16.310675
129.211431,5.020740,0.127717,13.591232
129.311431,2.027917,-0.393021,8.690433
129.411431,-0.883251,-0.369093,11.736795
129.511431,-5.478667,-2.465205,10.933704
129.611431,-2.138884,0.564407,8.558827
129.711431,0.756730,3.876672,5.677271
129.811431,-0.145663,-8.248059,21.513269
129.911431,0.554537,3.573980,4.776074
130.011431,0.019442,-1.494318,10.881062
130.111431,0.609572,2.787339,2.645265
130.211431,-1.779662,-4.028616,14.789438
130.311431,4.632804,3.379862,7.427620
130.411431,3.041876,-2.838785,10.369895
130.511431,2.212464,0.273679,9.094820
130.611431,0.129512,2.320739,9.608379
130.711431,-0.248854,-0.648156,10.963614
130.811431,-0.828216,-1.189233,13.684553
130.911431,0.933799,-0.605085,7.781758
131.011431,-0.512064,-0.536890,8.592327
131.111431,-2.319542,0.234198,10.894222
131.211431,0.653839,1.614258,7.445567
131.311431,-2.301596,-2.499902,10.809278
131.411431,3.812963,-6.052645,17.236099
131.511431,6.379265,3.757031,7.170093
131.611431,1.975275,-6.457331,19.905592
131.711431,-0.518046,0.739382,11.035398
131.811431,-3.101397,-2.131108,9.025428
131.911431,-0.090628,-2.606382,14.301003
132.011431,1.829313,0.447159,6.557231
132.111431,0.997508,1.932802,7.385447
132.211431,-2.386541,2.794518,6.062814
132.311431,-0.291924,6.962815,15.876378
132.411431,-1.773680,-1.040579,7.064809
132.511431,-1.591825,-9.624830,22.669601
132.611431,5.657530,0.316750,16.042679
132.711431,0.950549,-1.925325,13.350455
132.811431,-0.757627,-0.685245,13.423436
132.911431,0.356830,4.313661,5.011767
133.011431,-3.781258,-0.826421,9.710373
133.111431,-0.185444,0.506979,6.119046
133.211431,2.647060,0.264108,8.686844
133.311431,2.100001,0.478265,8.446066
133.411431,2.339283,-6.785447,13.897514
133.511431,-0.022433,2.868994,7.128219
133.611431,0.040977,-1.729113,11.979965
133.711431,-0.401994,-2.062912,17.140387
133.811431,-2.056332,-4.743173,16.572989
133.911431,0.045763,5.713163,4.410870
134.011431,0.418146,-4.520640,16.613667
134.111431,-1.207478,3.669693,0.585045
134.211431,-2.290828,0.642473,8.653344
134.311431,1.326521,-3.701697,12.445370
134.411431,-1.957030,4.986343,5.109873
134.511431,1.301396,-4.407878,17.729321
134.611431,2.563012,-2.736791,12.832109
134.711431,0.786640,-2.088037,12.299408
134.811431,3.864408,-4.645067,13.942978
134.911431,-1.485345,0.623330,5.909674
135.011431,1.144667,-2.149054,10.992328
135.111431,-0.774377,-2.290529,9.920941
135.211431,1.929811,-6.131907,18.117256
135.311431,1.555335,-3.327220,14.577374
135.411431,-0.507278,1.280459,8.397013
135.511431,-1.612164,2.818446,4.104588
135.611431,4.100101,-1.411765,12.297014
135.711431,-0.331406,0.046062,8.903394
135.811431,0.062512,-3.269493,17.876478
135.911431,0.270688,6.619146,2.572284
136.011431,-0.713061,-4.302594,16.762022
136.111431,-6.274579,-6.344868,13.130315
136.211431,-2.445465,1.892125,3.481856
136.311431,5.112864,-5.284250,17.688643
136.411431,4.896313,-2.094019,13.440186
136.511431,3.286243,8.140681,0.072682
136.611431,-2.037189,-3.574877,11.972787
136.711431,1.655833,-1.899004,10.875080
136.811431,0.485145,2.851945,6.947560
136.911431,2.470888,-3.779463,11.709277
137.011431,0.683749,3.897011,9.181260
137.111431,0.491127,4.015755,7.222735
137.211431,6.721738,-38.996727,78.332336
137.311431,-1.974976,22.424936,-26.785257
137.411431,1.375574,-5.933004,12.390335
137.511431,6.110073,6.931708,9.305687
137.611431,-0.987338,-0.193220,8.761021
137.711431,-1.287638,-5.767899,15.887146
137.811431,1.374377,4.099504,3.206681
137.911431,1.999203,6.042176,3.948756
138.011431,-2.435894,-10.653146,19.331017
138.111431,0.014656,4.684848,1.760519
138.211431,-6.315257,-6.810572,16.697416
138.311431,1.730011,0.219841,12.302997
138.411431,1.222433,2.149353,4.869394
138.511431,-2.101796,-3.649055,13.853247
138.611431,-0.392423,-2.948855,9.328419
138.711431,-1.467399,-0.541675,10.852348
138.811431,-0.195015,-1.584049,10.250254
138.911431,3.494418,2.709573,8.573184
139.011431,0.257528,-2.568097,15.575780
139.111431,0.839283,-2.490330,9.701999
139.211431,-0.787538,0.192323,11.408978
139.311431,-5.107480,-1.324427,5.306383
139.411431,-0.087039,3.007778,11.089237
139.511431,1.254736,-0.133400,10.308878
139.611431,1.834099,-7.348059,16.686647
139.711431,2.521138,-1.416551,8.743074
139.811431,0.276670,0.987039,6.603891
139.911431,1.084846,-3.803392,11.584851
140.011431,-2.444268,4.638187,0.719342
140.111431,0.305384,1.447957,4.956732
140.211431,1.702493,-5.266304,13.078870
140.311431,-0.010469,6.924530,2.272882
140.411431,-4.019344,-3.163013,7.611868
140.511431,-2.089832,-9.664311,18.366110
140.611431,0.355633,3.037688,3.736991
140.711431,-0.100199,0.823131,10.666605
140.811431,-0.032004,-4.418646,13.472488
140.911431,2.985644,-3.107978,15.769599
141.011431,0.723231,3.086741,8.555239
141.111431,4.588537,-0.032901,8.983554
141.211431,1.545763,-3.530610,15.381961
141.311431,0.328116,1.421636,11.330913
141.411431,1.618744,0.515354,11.238789
141.511431,-3.903292,-0.164507,4.699504
141.611431,-0.546760,-2.729612,16.253248
141.711431,-0.164806,0.686740,7.729116
141.811431,0.134297,6.292525,-0.650250
141.911431,3.112464,-5.973682,15.931413
142.011431,4.867301,2.397309,2.781656
142.111431,-1.121336,2.879762,3.170789
142.211431,-2.034796,-15.605092,21.522842
142.311431,-3.516552,-0.597907,7.625029
142.411431,-1.959423,-4.640281,12.206087
142.511431,2.242374,-5.635098,17.694624
142.611431,-0.307478,-4.054937,14.535501
142.711431,0.931406,5.655437,4.895715
142.811431,2.419443,-16.877775,28.412973
142.911431,1.228415,0.399302,-5.242076
143.011431,-0.777966,-6.227620,-2.479263
143.111431,-2.245365,4.002594,6.700801
143.211431,1.005883,8.851649,0.388834
143.311431,-2.519642,-0.962812,7.479066
143.411431,-2.745764,-3.672983,14.236398
143.511431,1.082453,-1.564906,9.513863
143.611431,0.317348,0.192323,5.558826
143.711431,4.604090,-1.360320,11.105988
143.811431,1.087239,-1.302892,12.212070
143.911431,-1.750948,2.973082,5.235795
144.011431,-2.311167,-0.466002,11.174183
144.111431,-2.551945,1.956731,8.947661
144.211431,-1.648057,-1.039382,11.271092
144.311431,0.943370,-1.335195,12.243176
144.411431,1.176970,-2.190031,6.812067
144.511431,-3.413661,2.000998,4.929214
144.611431,0.585643,0.887737,8.557631
144.711431,0.513859,-4.304987,13.062119
144.811431,1.470090,1.352244,6.565606
144.911431,4.965705,-4.935795,14.912669
145.011431,1.415056,2.459522,5.274080
145.111431,-3.048755,-3.716053,13.551452
145.211431,0.123529,-2.184946,11.285449
145.311431,-0.319442,-4.869992,13.746766
145.411431,2.168196,-1.150948,13.175778
145.511431,-1.467399,-1.796113,7.075577
145.611431,-4.980660,-2.967997,11.603993
145.711431,-4.750949,2.648556,7.375876
145.811431,-0.932304,-3.809374,10.048958
145.911431,0.796212,1.333101,8.586345
146.011431,7.339385,0.487837,6.861419
146.111431,0.611964,0.176770,8.557631
146.211431,0.049352,-0.475574,11.447264
146.311431,-0.519243,0.770489,7.313663
146.411431,2.776273,0.678365,13.602000
146.511431,1.035793,0.671187,8.126624
146.611431,1.484447,-2.204388,12.863216
146.711431,0.130708,4.515854,3.186342
146.811431,1.200898,1.851447,10.454841
146.911431,0.265902,-3.722036,11.917752
147.011431,0.479163,-1.563710,10.901401
147.111431,1.357628,9.525528,-1.410270
147.211431,-3.268895,-0.412164,11.346765
147.311431,-1.376471,3.888636,10.623534
147.411431,-0.045165,-2.181357,9.182457
147.511431,0.125922,1.223032,9.919745
147.611431,0.324527,2.580360,6.025726
147.711431,-1.072284,-4.397111,15.098113
147.811431,1.099203,0.343071,9.643075
147.911431,0.731606,-2.690131,11.318949
148.011431,5.160720,-7.993224,22.658834
148.111431,1.320539,-1.723131,11.101202
148.211431,-0.311067,-4.453641,12.961322
148.311431,0.857229,5.737092,2.118545
148.411431,6.528817,-7.130013,24.540489
148.511431,1.382752,1.789233,5.939584
148.611431,0.082851,-3.318845,12.371192
148.711431,1.080060,-6.416653,13.570595
148.811431,0.786640,1.701596,4.433601
148.911431,-1.633700,-1.517050,7.961220
149.011431,-0.021236,1.177269,6.826424
149.111431,-2.155634,-1.088734,2.876173
149.211431,-2.931208,2.264208,3.026023
149.311431,-2.928815,-1.269392,7.566404
149.411431,-0.043968,-0.036491,8.358727
149.511431,-3.026023,-1.803291,11.134701
149.611431,0.268295,-3.336791,15.845271
149.711431,3.143571,-2.845963,12.678969
149.811431,1.111167,1.328316,7.124629
149.911431,0.538983,1.058824,8.017751
150.011431,2.164607,-2.042573,12.895519
150.111431,-2.216651,1.875375,3.501298
150.211431,0.693320,-3.216851,11.584851
150.311431,-1.341775,1.170090,7.098309
150.411431,-2.560320,-3.521039,13.065709
150.511431,-1.582254,1.458724,7.134201
150.611431,1.004686,2.822035,4.319942
150.711431,1.636691,-0.715155,11.915360
150.811431,1.243969,-7.666305,19.182362
150.911431,1.144667,-3.635894,9.169296
151.011431,-0.677169,-2.509473,9.123833
151.111431,-2.037189,-0.335593,6.136992
151.211431,0.989133,-4.636692,13.718052
151.311431,0.275474,-2.001895,7.421638
151.411431,1.411466,-1.221536,4.974678
151.511431,-2.301596,-3.690929,14.881562
151.611431,-0.689133,-3.772285,15.464514
151.711431,-1.048355,-4.767101,11.897114
151.811431,0.034995,-2.700899,9.524631
151.911431,-0.256032,-3.565306,11.060524
152.011431,1.218844,-3.523431,9.968799
152.111431,-1.774876,-4.920241,10.056136
152.211431,1.895115,-0.870688,10.883454
152.311431,1.755135,-3.911368,11.100005
152.411431,0.722034,-3.259922,10.103992
152.511431,1.848456,-3.605984,7.339983
152.611431,-0.491725,-3.966403,8.570791
152.711431,1.084846,-3.863212,9.213564
152.811431,0.939781,-3.932903,9.755837
152.911431,-0.559920,-1.262214,9.891031
153.011431,0.516252,-0.444467,9.062516
153.111431,0.610768,1.167697,10.660624
153.211431,-1.036391,-0.852742,10.042975
153.311431,-0.394816,-1.804487,9.841979
153.411431,-0.455833,-0.077169,9.419347
153.511431,0.511466,-1.083949,10.785349
153.611431,-0.546760,-1.322034,10.404591
153.711431,-1.750948,-1.464407,9.226724
153.811431,1.436591,0.082253,10.414163
153.911431,3.104089,-4.361218,13.175778
154.011431,-2.997309,2.306382,10.057333
154.111431,2.943770,-0.257827,11.495120
154.211431,-2.528017,1.752144,8.528618
154.311431,1.498804,-0.188435,10.371092
154.411431,0.474377,-0.569193,10.615159
154.511431,-1.928316,-0.630210,10.034601
154.611431,1.363610,0.058325,9.709177
154.711431,-3.774080,-0.816850,10.533804
154.811431,-9.303294,0.838684,7.688438
154.911431,-1.719841,0.229412,9.037392
155.011431,1.724029,0.441177,10.450055
155.111431,-0.464208,0.392124,10.027422
155.211431,-1.729413,0.456730,10.655837
155.311431,1.485644,-0.594317,9.335598
155.411431,0.637089,2.102693,7.977073
155.511431,0.644267,3.504588,7.366304
155.611431,1.887937,-0.551247,12.335299
155.711431,2.002793,-3.349952,13.990834
155.811431,-4.584349,3.692425,7.137790
155.911431,1.114756,-0.831207,9.442079
156.011431,2.603690,0.480658,9.614362
156.111431,0.153440,-1.518246,10.186545
156.211431,0.463609,0.284447,8.812467
156.311431,2.003989,0.567996,9.318848
156.411431,-0.282353,1.115055,8.853145
156.511431,-0.215354,2.248655,7.354341
156.611431,3.221637,-4.169793,18.907187
156.711431,2.015953,-1.534996,14.211273
156.811431,-1.105783,2.436791,7.916953
156.911431,1.191327,3.390630,7.435996
157.011431,0.579661,-2.469991,11.915360
157.111431,-2.302793,0.150449,7.295716
157.211431,1.597209,-1.742274,11.315359
157.311431,-0.104985,0.378963,8.260622
157.411431,-1.942673,-0.843171,6.261419
157.511431,0.014656,0.603889,8.880662
157.611431,-0.993321,1.213460,5.874978
157.711431,-0.217747,2.397309,9.609575
157.811431,-0.843769,0.328714,12.280265
157.911431,0.552144,-1.373480,12.413067
158.011431,2.519941,-4.380361,10.105189
158.111431,-2.067100,1.816751,5.673682
158.211431,1.063311,1.300798,11.478371
158.311431,-0.266800,-4.297809,15.174683
158.411431,-0.678365,1.933999,5.549255
158.511431,-2.788835,0.648455,8.515457
158.611431,-0.250050,-1.552942,8.234301
158.711431,3.287439,-0.219541,10.035797
158.811431,1.374377,-4.160221,12.931412
158.911431,3.827320,1.024128,9.610772
159.011431,-2.678765,0.167198,8.035697
159.111431,-1.549951,-0.997508,10.084850
159.211431,2.155036,-1.814059,8.792128
159.311431,0.116351,3.309274,7.915756
159.411431,-3.108576,-2.546561,13.593625
159.511431,1.179362,1.357030,10.981561
159.611431,-0.436690,-0.351147,11.342876
159.711431,-2.626123,-1.494318,9.716355
159.811431,2.346462,-2.335993,10.003494
159.911431,3.228815,0.093021,9.275777
160.011431,0.921835,0.571586,6.872187
160.111431,3.274279,-5.013861,13.652249
160.211431,0.560519,2.311167,6.841977
160.311431,-0.104985,1.593919,8.460423
160.411431,-0.061914,-0.223131,10.618749
160.511431,-0.034397,-0.281755,8.627023
160.611431,-3.015256,-1.903790,11.363515
160.711431,-1.154836,2.042872,5.215456
160.811431,-0.575474,0.532104,6.680462
160.911431,4.917849,-4.993223,14.217255
161.011431,3.209672,-0.639781,9.598808
161.111431,1.036990,1.773680,7.741080
161.211431,-1.642075,0.109771,6.129813
161.311431,-0.828216,1.002593,5.845068
161.411431,1.064507,-1.478764,11.916555
161.511431,3.101696,0.047258,12.652648
161.611431,0.002692,0.271286,7.937292
161.711431,-0.308674,0.320339,9.684052
161.811431,-0.072682,-0.680459,8.733503
161.911431,0.862014,0.272483,11.636296
162.011431,-0.885643,0.520140,5.994619
162.111431,-0.229711,-0.123829,7.399804
162.211431,0.695713,-2.369493,12.985250
162.311431,0.580858,-2.623132,13.797015
162.411431,1.009472,-2.715255,14.024334
162.511431,-2.053939,1.944767,9.058928
162.611431,-1.364507,-2.076073,10.895419
162.711431,-2.690729,7.186544,2.505285
162.811431,7.213762,-0.188435,17.188244
162.911431,0.840479,7.369894,3.439982
163.011431,-0.625723,-1.127020,7.488637
163.111431,3.404687,3.572783,7.980662
163.211431,0.007478,-16.183258,31.422247
163.311431,2.536691,7.165008,-5.453841
163.411431,5.716154,13.003197,0.626920
163.511431,5.519943,-8.851350,17.549858
163.611431,5.650352,-8.829815,20.993729
163.711431,2.515156,7.034599,-2.572583
163.811431,2.352444,1.926820,10.117153
163.911431,-0.709472,4.079165,7.080362
164.011431,1.617548,-5.503193,15.246468
164.111431,0.110369,-2.620739,9.652647
164.211431,-0.698704,-4.393521,12.846467
164.311431,1.398306,0.004187,13.425829
164.411431,1.230808,7.446464,-2.755934
164.511431,2.067399,0.680758,1.770091
164.611431,6.063413,15.442679,-13.953147
164.711431,0.805783,-8.323434,12.973287
164.811431,2.606083,-0.972383,5.711967
164.911431,0.452842,-16.249359,33.043087
165.011431,1.389931,3.594319,0.927518
165.111431,-1.713859,1.156930,-0.368794
165.211431,-3.314358,12.351750,-5.312665
165.311431,-0.722632,-1.674079,11.128719
165.411431,-0.440279,6.668199,0.544367
165.511431,2.796612,-15.814763,28.592436
165.611431,6.173482,-1.098306,12.954144
165.711431,-2.586641,-1.252643,6.067600
165.811431,1.574477,6.918548,6.035297
165.911431,9.829117,14.159528,0.141177
166.011431,0.224028,-1.410569,12.123535
166.111431,5.892026,-8.767601,16.803896
166.211431,-3.250949,-6.000003,15.817455
166.311431,-2.159223,-5.280661,16.267605
166.411431,-2.020440,2.070390,16.189838
166.511431,1.294218,25.858038,-8.233403
166.611431,3.032305,-15.833905,32.105995
166.711431,1.186541,2.957529,5.343472
166.811431,-2.208276,-30.057142,59.812790
166.911431,-7.069594,14.488541,-21.311377
167.011431,-0.309871,-1.638186,14.273486
167.111431,8.059924,8.205288,5.514559
167.211431,4.128816,-8.984451,17.445471
167.311431,0.962812,-0.724726,9.812068
167.411431,0.552144,-1.729113,16.758432
167.511431,0.096012,4.348357,2.172384
167.611431,-4.966303,-2.587240,9.503095
167.711431,2.407479,-0.327219,12.117553
167.811431,-2.492125,-11.010873,17.239689
167.911431,-6.466304,7.746763,-0.698106
168.011431,-2.541178,-9.806684,16.274784
168.111431,1.228415,-6.521937,13.241581
168.211431,-1.251745,4.365107,2.136492
168.311431,-0.686740,1.042074,-1.355235
168.411431,0.750748,-4.425825,16.155142
168.511431,0.428913,-6.360422,16.410276
168.611431,0.460020,-18.351154,46.754257
168.711431,-3.011666,9.958928,1.773680
168.811431,2.439782,-3.076871,6.524928
168.911431,-0.691526,-9.597313,19.868504
169.011431,1.265504,13.168302,-0.100798
169.111431,0.190528,8.170592,-1.498804
169.211431,-0.384048,-13.299607,24.341887
169.311431,-0.594616,5.525027,-6.096912
169.411431,2.610869,9.131908,12.101999
169.511431,5.527121,-10.155139,25.887051
169.611431,1.777867,-1.694417,11.696117
169.711431,-1.632503,-1.619941,11.234003
169.811431,-4.679165,-4.625925,8.889037
169.911431,0.823729,3.758227,14.291432
170.011431,1.388734,4.599903,0.638884
170.111431,-3.960720,-8.118847,15.457335
170.211431,-1.010070,0.922433,14.123635
170.311431,3.699005,7.319345,-3.365206
170.411431,-3.602993,-9.168698,24.282064
170.511431,-0.177069,-1.174876,6.182456
170.611431,0.827318,-7.600502,20.482561
170.711431,-1.779662,1.792822,5.467899
170.811431,-6.855138,8.432606,-6.161518
170.911431,-2.450250,-19.196419,29.565716
171.011431,-0.518046,-1.351945,15.045470
171.111431,2.852843,11.667104,5.167301
171.211431,-3.683152,-3.680161,11.383854
171.311431,-2.859423,-2.116751,15.875182
171.411431,1.740778,6.046962,9.257831
171.511431,-3.346662,-6.466902,11.787045
171.611431,-4.230211,-1.026222,6.114260
171.711431,-0.087039,9.929018,3.637689
171.811431,-0.366102,0.893719,7.401001
171.911431,2.596512,-5.109574,19.779970
172.011431,-0.052343,3.378666,2.976970
172.111431,1.676172,16.801205,-16.351952
172.211431,3.347260,-6.725626,19.290339
172.311431,2.461317,-7.433004,17.382061
172.411431,-0.821037,8.575278,-6.543173
172.511431,1.165006,-3.875475,8.850752
172.611431,-1.943869,-7.393523,13.580166
172.711431,2.229213,1.935195,11.735599
172.811431,0.894317,-5.128716,11.180164
172.911431,0.795015,-0.034098,10.433305
173.011431,2.043471,0.903291,4.156034
173.111431,-1.128515,5.096413,11.386247
173.211431,0.538983,-6.787839,22.068705
173.311431,2.850450,4.900202,6.611070
173.411431,0.018245,-2.836392,16.287943
173.511431,-4.709075,-4.739583,17.917156
173.611431,-0.375673,-13.594224,23.009382
173.711431,2.089233,6.186942,11.447264
173.811431,-1.822733,-13.371392,21.327528
173.911431,4.546662,0.115753,6.146563
174.011431,-5.093123,0.654437,3.553940
174.111431,-0.199801,-11.004890,32.949764
174.211431,-1.377668,-5.620740,13.013964
174.311431,-1.658824,0.921237,9.511470
174.411431,-3.977469,-7.409076,11.024632
174.511431,2.487638,6.273383,-3.190231
174.611431,2.182553,4.466802,4.564010
174.711431,2.874378,-4.714459,18.687048
174.811431,4.455735,-4.737191,13.791034
174.911431,-0.302692,11.761621,-8.378469
175.011431,-1.116551,-1.313660,7.754241
175.111431,2.274677,2.813660,11.880364
175.211431,1.205683,-0.430110,11.542976
175.311431,3.107678,-5.056931,20.213070
175.411431,2.549852,7.353144,-1.443769
175.511431,-0.057129,-0.077169,10.296914
175.611431,-0.241675,-3.615555,12.935001
175.711431,2.244767,-1.951646,13.575380
175.811431,2.163411,1.674079,9.074481
175.911431,-1.567897,0.750150,7.967202
176.011431,0.936192,-5.117949,13.921442
176.111431,-2.629712,6.706484,7.644171
176.211431,3.549453,-2.519044,15.344872
176.311431,3.117250,2.282155,8.654540
176.411431,2.863611,0.771685,8.757432
176.511431,1.427020,-5.267500,16.837395
176.611431,-2.514857,11.761621,-5.445466
176.711431,-1.704288,0.948754,9.467203
176.811431,-0.611366,-17.629419,37.716270
176.911431,3.538686,13.929518,-11.320743
177.011431,3.142374,-7.799106,17.434704
177.111431,-1.821536,-8.506783,21.993031
177.211431,0.076869,2.981457,9.507881
177.311431,-2.762514,2.420041,4.297210
177.411431,-1.319044,-17.255840,37.167114
177.511431,-4.883751,9.653843,-7.705487
177.611431,-3.989434,1.219442,5.640182
177.711431,-0.372084,-23.909084,38.514874
177.811431,3.654737,9.637094,-4.476074
177.911431,6.524031,-12.971790,21.581465
178.011431,2.373979,-6.629614,17.585751
178.111431,1.563710,8.516654,4.019344
178.211431,2.330908,-6.238388,12.938590
178.311431,0.637089,0.013759,14.455340
178.411431,1.691726,1.025324,8.520244
178.511431,0.246760,-9.235697,17.813068
178.611431,-1.729413,5.756234,0.406780
178.711431,0.015852,3.547659,12.913466
178.811431,2.330908,-6.107680,13.571791
178.911431,6.057431,-5.487639,18.917955
179.011431,1.817349,2.558825,5.460721
179.111431,-1.509273,-2.687738,10.574481
179.211431,-1.736591,-0.343968,14.085350
179.311431,2.457728,10.122836,-0.364008
179.411431,5.006383,15.870097,0.018843
179.511431,0.783051,3.883850,4.547260
179.611431,8.141280,23.495125,-38.825340
179.711431,0.111565,4.681258,6.411269
179.811431,7.536793,2.561218,36.929928
179.911431,4.882854,23.295324,-29.588747
180.011431,3.069393,2.082354,7.888239
180.111431,-1.061516,-4.407878,16.823038
180.211431,5.056633,-2.636292,17.714964
180.311431,2.134697,8.217252,-4.231707
180.411431,-1.242174,-9.892826,19.049561
180.511431,0.585643,10.459327,-9.814760
180.611431,3.350849,-9.417552,22.481466
180.711431,2.632404,-9.396016,13.773088
180.811431,-2.405684,1.663311,5.880960
180.911431,4.079762,8.443374,1.375275
181.011431,0.136690,0.585942,9.480363
181.111431,2.114358,-3.195316,10.095618
181.211431,-2.199901,5.928517,-6.684649
181.311431,2.311766,-2.575275,14.159827
181.411431,0.848854,-7.385148,15.511173
181.511431,2.439782,5.570491,2.901298
181.611431,0.385544,9.088838,-4.582554
181.711431,0.473181,-10.436296,18.111275
181.811431,1.142274,3.339184,0.270389
181.911431,-1.231406,10.645967,-13.039687
182.011431,-5.732306,-7.996813,19.759331
182.111431,-1.437488,-1.932503,8.423334
182.211431,-2.419144,-2.606382,16.260426
182.311431,-0.300299,7.694121,-1.133899
182.411431,0.604786,-3.424129,16.903198
182.511431,0.461217,-1.472782,10.700105
182.611431,-1.591825,-0.129811,7.103094
182.711431,-1.225424,1.363012,6.284151
182.811431,0.011067,-9.860523,18.774385
182.911431,-1.372882,-1.288535,11.930913
183.011431,3.150749,3.712764,6.208776
183.111431,-1.805983,-5.135895,17.249260
183.211431,-0.078664,-11.496915,18.599411
183.311431,1.089632,10.155139,-5.489733
183.411431,8.652447,0.887737,13.169797
183.511431,0.638285,-6.086144,17.019548
183.611431,-1.991726,-4.444070,11.670993
183.711431,0.287438,1.263709,7.354341
183.811431,2.600101,-1.146162,12.374782
183.911431,4.541876,-4.929813,15.809080
184.011431,3.096911,5.210371,5.424828
184.111431,-0.386441,-7.571788,15.366408
184.211431,-3.122933,-4.336094,19.742582
184.311431,6.446264,7.125527,1.940280
184.411431,-0.093021,-3.288636,8.625827
184.511431,0.069691,-15.568004,37.720158
184.611431,1.340878,3.436392,8.682058
184.711431,-2.894119,-3.036193,8.686844
184.811431,1.714457,-0.618246,9.054142
184.911431,0.664607,-2.410171,13.895121
185.011431,1.597209,9.279067,-1.793421
185.111431,2.231606,-1.141376,9.107083
185.211431,3.495615,4.183252,3.116951
185.311431,1.873580,-1.988735,15.636797
185.411431,1.169791,-17.460726,30.275488
185.511431,2.613261,11.783156,-4.427021
185.611431,-0.472582,3.650550,10.755139
185.711431,-0.140877,-12.977773,27.731916
185.811431,-0.174676,5.587241,3.096612
185.911431,2.278266,8.745169,2.483750
186.011431,-0.830609,-6.823732,19.888844
186.111431,-0.214158,-5.747560,16.721344
186.211431,-1.995315,8.998808,5.910870
186.311431,0.131904,-5.784649,6.545267
186.411431,0.980758,3.891029,2.825923
186.511431,-2.642873,12.002398,-16.812870
186.611431,4.686642,-8.149954,13.133904
186.711431,-1.666003,1.906481,6.182456
186.811431,0.812962,2.593521,1.569093
186.911431,-1.086641,2.958725,5.824728
187.011431,0.984347,-14.974284,32.268707
187.111431,1.950150,7.420143,-5.372485
187.211431,-0.929911,-9.299107,19.327427
187.311431,-0.771984,-4.727619,17.193029
187.411431,0.086441,4.276572,1.110569
187.511431,3.614059,-3.947260,12.481561
187.611431,-2.122135,-13.388142,18.798313
187.711431,-8.394620,-2.862713,13.373187
187.811431,1.169791,10.053444,-4.183850
187.911431,4.176672,2.241477,18.707386
188.011431,-1.443470,-7.777571,10.135099
188.111431,1.223630,7.700103,-0.611964
188.211431,-2.906083,-2.836392,11.556137
188.311431,-2.313560,4.478766,6.733104
188.411431,4.343272,-3.402594,14.420645
188.511431,4.436592,-4.099204,18.335003
188.611431,1.684547,5.163711,6.170491
188.711431,-2.484946,2.042872,5.877371
188.811431,2.739184,-9.713365,18.087347
188.911431,0.117547,1.843072,7.966006
189.011431,-0.685544,-9.807881,5.524130
189.111431,-7.488637,-11.451451,17.299509
189.211431,-4.068397,-3.346362,3.387340
189.311431,-3.121736,-12.378072,29.641090
189.411431,1.701297,-5.440979,18.114864
189.511431,2.698506,9.796216,-0.378365
189.611431,-5.873781,-25.388746,32.339298
189.711431,-3.662813,-5.858826,8.212766
189.811431,-1.886442,3.892225,10.557732
189.911431,0.956830,4.174877,6.188437
190.011431,-2.612962,-10.335797,18.793528
190.111431,2.657828,0.966700,9.114262
190.211431,3.125625,-1.019043,7.684849
190.311431,-1.276870,8.962915,-4.909175
190.411431,-1.597807,-9.167501,22.899313
190.511431,1.322932,4.961219,-0.312562
190.611431,0.760319,-1.484746,14.813367
190.711431,2.796612,7.683353,-1.848456
190.811431,0.298206,-7.704590,17.279171
190.911431,1.058525,-8.141579,11.647064
191.011431,1.223630,-13.017254,15.202201
191.111431,1.374377,10.279865,-3.123232
191.211431,-1.840679,-3.728018,16.390835
191.311431,1.904687,-4.904688,22.141685
191.411431,-7.505387,17.952749,-13.843974
191.511431,-3.023631,-7.436594,14.560625
191.611431,-0.905982,-1.606780,8.940483
191.711431,1.290629,2.402095,4.679165
191.811431,-0.373280,6.282954,5.065606
191.911431,-2.082653,3.941278,2.882155
192.011431,3.444169,-10.817054,27.562923
192.111431,-0.195015,3.359523,5.995815
192.211431,-1.459024,-11.914762,21.782463
192.311431,-3.772883,-2.290529,6.529714
192.411431,1.514358,-0.184846,3.742973
192.511431,-1.523630,1.363012,2.120938
192.611431,-1.084248,-0.437288,8.284551
192.711431,-1.062712,-9.732507,18.797117
192.811431,3.269493,-2.006681,2.362613
192.911431,0.166600,-1.810469,11.879168
193.011431,4.122833,-6.380761,11.464013
193.111431,0.905085,-6.271887,12.589238
193.211431,3.240779,-2.824428,8.976375
193.311431,1.224826,-2.735595,12.809378
193.411431,3.135196,0.970290,7.751848
193.511431,-0.006879,-0.521336,9.504292
193.611431,1.151845,-2.484348,10.918151
193.711431,5.349753,-4.325326,11.773884
193.811431,2.679363,-1.762613,10.854741
193.911431,2.326123,3.196811,10.995917
194.011431,3.029912,-1.946860,8.841181
194.111431,2.458924,0.243769,7.205986
194.211431,-0.666401,-0.413360,8.802896
194.311431,1.629512,-2.948855,13.578969
194.411431,2.866003,0.176770,7.744669
194.511431,0.877568,-2.419742,11.073684
194.611431,-2.296811,-1.700400,9.795319
194.711431,-2.045564,-0.314058,10.175777
194.811431,1.394717,-0.742672,8.567203
194.911431,-0.174676,-2.418545,13.452149
195.011431,1.098006,-4.209274,6.957132
195.111431,0.492323,-1.534996,9.048160
195.211431,3.808177,-4.992026,9.371490
195.311431,0.748355,-3.704089,10.371092
195.411431,1.741975,-6.106483,10.846366
195.511431,0.160618,-4.634299,9.079267
195.611431,1.917847,-5.280661,10.214063
195.711431,0.491127,-3.981956,9.707980
195.811431,1.921437,-2.507080,10.244272
195.911431,1.348056,-1.332802,9.611969
196.011431,1.288236,-1.518246,9.012267
196.111431,0.454038,-1.853540,9.547362
196.211431,1.084846,-2.315654,9.804890
196.311431,1.153041,-2.321636,9.730712
196.411431,0.893121,-1.815255,9.339187
196.511431,1.066900,-1.897807,9.838389
196.611431,0.025424,-1.745863,9.958031
196.711431,-0.005683,-1.946860,9.473185
196.811431,-0.099003,-2.016252,9.709177
196.911431,0.705284,-1.864308,9.810872
197.011431,3.693023,-0.267398,7.930113
197.111431,-1.346561,-0.952044,8.137392
197.211431,-0.339781,-2.550151,10.457233
197.311431,0.515055,-0.801296,9.119047
197.411431,1.315753,-2.916552,11.526227
197.511431,0.491127,-1.508675,9.094820
197.611431,1.053739,-1.539781,9.518648
197.711431,1.568495,-2.309672,10.253843
197.811431,0.495912,-1.957628,9.926924
197.911431,-1.366900,-2.070091,9.980762
198.011431,-0.192622,-1.663311,8.042875
198.111431,2.776273,1.443171,7.951649
198.211431,-0.242871,-3.159423,10.906186
198.311431,-0.327817,-2.265405,10.138689
198.411431,-0.854537,-1.885843,9.397811
198.511431,0.237189,-1.735096,9.517452
198.611431,-0.713061,-1.861915,9.734302
198.711431,-0.091825,-2.172982,9.993923
198.811431,0.277867,-1.674079,9.706784
198.911431,0.036191,-1.776970,9.735498
199.011431,0.045763,-1.851147,9.707980
199.111431,-0.066700,-1.824826,9.623933
199.211431,0.306580,-1.821237,9.678070
199.311431,-0.047557,-1.962414,9.633504
199.411431,-0.257228,-2.095215,9.698409
199.511431,0.080459,-1.663311,9.432507
199.611431,0.507877,-1.741078,9.583255
199.711431,0.499502,-1.944468,9.841979
199.811431,0.352044,-1.872683,9.712767
199.911431,0.651446,-1.635793,9.644272
200.011431,0.001496,-1.824826,9.818050
200.111431,-0.010469,-1.542174,9.755837
200.211431,-0.367298,-2.018645,9.232706
200.311431,-0.023629,-1.613959,9.559326
200.411431,-0.537189,0.407677,17.598911
200.511431,2.214856,-1.772184,10.445269
200.611431,2.457728,-1.858326,10.391431
200.711431,-2.391327,-0.294915,9.396614
200.811431,1.363610,-0.735494,9.701999
200.911431,-0.018843,-0.874278,9.784551
201.011431,1.290629,-1.140180,9.406186
201.111431,-0.315853,-0.597907,9.765409
201.211431,-1.927119,-1.719542,11.650654
201.311431,1.456930,0.855434,7.636992
201.411431,1.144667,-0.378664,9.063713
201.511431,5.470890,3.263810,9.281759
201.611431,4.436592,2.422434,9.132208
201.711431,0.903889,-2.326422,10.451251
201.811431,-1.043570,-0.305683,7.426424
201.911431,-1.065105,0.870987,9.310472
202.011431,2.895914,5.670093,11.589637
202.111431,4.088138,5.253442,10.054940
202.211431,-0.447458,-2.270190,12.604792
202.311431,-0.800698,-2.778964,14.755939
202.411431,-4.132106,-1.450050,8.769396
202.511431,-1.304687,-0.403789,8.312068
202.611431,2.772683,-1.910968,10.349556
202.711431,2.393122,-0.400200,10.636695
202.811431,1.671387,-0.640977,10.483554
202.911431,1.282254,-1.593620,8.289336
203.011431,1.611566,0.758525,8.866305
203.111431,0.638285,-1.079163,10.120743
203.211431,-0.773181,0.524925,8.680861
203.311431,0.174975,3.412165,4.765306
203.411431,1.578067,-2.092823,13.428222
203.511431,2.032703,0.252144,8.922537
203.611431,-1.296312,-0.888635,8.973982
203.711431,-1.741377,-0.024526,8.963215
203.811431,1.593620,0.199502,7.622636
203.911431,0.895514,-1.403391,10.770693
204.011431,-0.540778,-1.362713,9.201599
204.111431,-0.491725,1.080359,6.751050
204.211431,-1.136890,-0.558425,8.351549
204.311431,-1.515255,0.890130,8.999106
204.411431,-0.658026,0.193520,8.972786
204.511431,-1.176371,1.367797,7.964809
204.611431,-0.522832,-2.328815,13.094422
204.711431,-1.403989,1.296013,5.680860
204.811431,-0.380459,-1.920539,14.263915
204.911431,-11.101202,7.774281,2.196312
205.011431,0.934995,-1.427319,7.794919
205.111431,3.799802,1.578366,5.335097
205.211431,1.322932,-1.010669,13.561023
205.311431,1.410270,1.735096,1.456631
205.411431,-2.292025,-2.105983,11.511869
205.511431,-3.918845,3.311666,7.176075
205.611431,3.599703,-0.587139,7.492227
205.711431,1.409073,-4.459623,19.445871
205.811431,-0.271585,-3.633501,11.505888
205.911431,-2.110170,0.578764,6.791728
206.011431,4.503592,-1.144966,11.566905
206.111431,4.302295,-1.998306,11.932109
206.211431,0.989133,-1.111466,9.462418
206.311431,-0.037986,1.676471,7.592725
206.411431,0.413360,-0.322433,8.968000
206.511431,0.767498,0.320339,9.923335
206.611431,0.582054,-3.468396,11.605190
206.711431,0.629911,-2.001895,11.361122
206.811431,3.979264,3.367898,10.920544
206.911431,1.657030,0.937986,7.268199
207.011431,-0.087039,2.271387,9.109476
207.111431,-1.189532,-0.336790,7.464709
207.211431,2.241178,-2.661417,11.790633
207.311431,3.105286,4.281358,8.594720
207.411431,2.610869,-0.526122,9.788140
207.511431,0.866800,3.168097,6.335895
207.611431,-0.392423,-1.976771,9.644272
207.711431,-1.603789,-1.262214,11.435300
207.811431,1.498804,1.726721,12.358031
207.911431,1.156631,-2.295315,11.327323
208.011431,-1.561915,-0.110668,7.492227
208.111431,-1.620539,-1.172483,12.233604
208.211431,-2.027618,-1.271785,8.170891
208.311431,0.237189,3.434000,3.021238
208.411431,0.696910,-3.292225,15.460924
208.511431,0.664607,-0.318844,9.293723
208.611431,-1.307079,0.453141,10.513465
208.711431,-0.006879,0.198305,10.833205
208.811431,0.717249,-1.442872,12.755539
208.911431,-0.109771,-5.876772,13.295420
209.011431,0.521037,5.800501,4.597509
209.111431,-2.343471,-1.245464,9.576077
209.211431,-1.233799,-3.768696,12.366406
209.311431,-0.024826,-1.129412,13.594822
209.411431,2.675774,-0.448056,11.721242
209.511431,1.320539,0.623330,8.678469
209.611431,-0.251246,-2.268994,10.153046
209.711431,0.476770,-1.179662,10.734800
209.811431,0.713659,-1.026222,10.015458
209.911431,-1.734198,4.964808,4.626523
210.011431,-1.106980,-0.579960,7.772187
210.111431,0.125922,0.231805,10.141082
210.211431,-1.431506,0.215055,8.981161
210.311431,1.388734,0.611067,11.235200
210.411431,4.945366,-4.680959,13.288241
210.511431,-1.589432,-1.331606,11.545369
210.611431,0.129512,0.417248,8.903394
210.711431,1.217648,0.082253,9.114262
210.811431,1.368395,0.617049,9.552148
210.911431,1.466501,0.010169,8.948857
211.011431,-0.294317,0.684347,7.425228
211.111431,-0.196211,0.059521,7.780562
211.211431,-0.195015,-0.862313,10.521839
211.311431,1.507179,-1.111466,11.696117
211.411431,-0.995713,1.278066,5.532505
211.511431,-2.057528,-0.551247,10.412966
211.611431,-0.977767,-2.253441,12.497114
211.711431,-1.549951,-1.433301,10.517054
211.811431,0.929013,-0.623031,9.589237
211.911431,-0.856930,1.156930,7.166504
212.011431,-1.868495,0.144467,10.390234
212.111431,0.422931,-1.666900,10.902597
212.211431,0.944567,-0.425324,9.480363
212.311431,0.111565,-0.759422,9.746265
212.411431,-2.996113,0.690329,7.373483
212.511431,1.526621,1.817947,6.516553
212.611431,-0.102592,-3.632305,12.216855
212.711431,2.450550,0.300000,10.041780
212.811431,-1.112962,0.658026,8.425727
212.911431,2.111965,-1.575674,11.759527
213.011431,-1.176371,0.307179,7.221539
213.111431,-0.955035,-1.852344,12.249158
213.211431,-0.351745,-0.820439,10.368699
213.311431,1.444966,-0.918545,12.340085
213.411431,2.045863,-3.437290,15.425032
213.511431,-2.019243,-1.922932,10.040583
213.611431,0.069691,-2.914159,11.770294
213.711431,2.788237,-0.150150,10.119546
213.811431,1.697708,-0.808475,11.797812
213.911431,4.515555,-0.883849,10.001101
214.011431,-0.210568,-6.706484,17.319849
214.111431,0.215653,-0.340379,9.165708
214.211431,-1.567897,1.776073,8.667701
214.311431,-0.634098,0.323928,10.759925
214.411431,1.811367,1.604687,8.217551
214.511431,-1.750948,-5.284250,15.897914
214.611431,0.744766,0.948754,6.862615
214.711431,2.091626,0.107378,8.579166
214.811431,1.057328,1.197907,9.133404
214.911431,0.001496,1.838286,7.046863
215.011431,2.534298,-2.747559,12.001501
215.111431,1.562513,-0.753440,9.098409
215.211431,0.589233,-2.344368,11.250753
215.311431,1.473680,-0.645763,8.182856
215.411431,-1.279263,-0.791725,7.544869
215.511431,0.317348,-1.302892,10.008280
215.611431,-0.283549,-1.692025,9.715159
215.711431,-0.173480,2.162513,4.914858
215.811431,2.281856,-4.684548,12.827324
215.911431,0.920639,3.954438,4.272086
216.011431,0.316152,1.510170,5.679664
216.111431,1.479662,-1.496711,10.685748
216.211431,0.180957,-0.721137,8.635398
216.311431,1.984846,-1.362713,10.078868
216.411431,3.063411,-3.101995,14.339289
216.511431,-0.999303,4.520640,4.598706
216.611431,-1.057927,-0.969990,7.755437
216.711431,0.130708,-0.609871,8.292925
216.811431,-4.628616,-0.359522,9.840782
216.911431,1.501197,-1.873879,11.094023
217.011431,1.080060,0.014955,7.925328
217.111431,-0.760020,-3.122334,12.238391
217.211431,-1.847857,-0.311665,8.951250
217.311431,0.784248,0.595514,9.151350
217.411431,-0.313460,3.138187,4.851448
217.511431,1.046561,-1.790130,10.347163
217.611431,-1.497309,-1.513460,10.985149
217.711431,1.065703,-0.348754,10.095618
217.811431,4.654339,6.722037,3.581457
217.911431,-0.215354,2.814857,7.769794
218.011431,-0.411565,-0.304487,8.566006
218.111431,0.306580,-3.228815,9.105886
218.211431,-0.046361,-2.199602,8.505886
218.311431,-0.786341,1.520938,7.591529
218.411431,2.362015,1.789233,4.357031
218.511431,1.001097,-4.166203,15.022738
218.611431,0.655035,0.622134,6.478268
218.711431,1.594816,-1.170090,10.950454
218.811431,0.209671,-2.036591,11.659028
218.911431,0.561715,-0.636192,11.681760
219.011431,-0.164806,1.066002,5.635396
219.111431,-2.569891,0.576371,6.005387
219.211431,-3.656831,1.519742,6.812067
219.311431,-0.767199,-1.453640,9.782158
219.411431,1.326521,-1.544567,11.643475
219.511431,1.579263,-1.202393,11.511869
219.611431,-0.476172,-1.184447,9.891031
219.711431,2.721238,-0.559621,12.337692
219.811431,-0.483350,-1.907379,11.357533
219.911431,0.608375,-1.256232,9.133404
220.011431,-1.231406,-1.140180,11.262717
220.111431,1.086042,0.975075,6.690033
220.211431,-1.524826,4.402195,5.051249
220.311431,1.235594,-4.980062,14.950954
220.411431,0.034995,-1.197608,12.836895
220.511431,0.675374,-2.527419,10.625927
220.611431,1.868794,-1.091127,9.605987
220.711431,2.391925,-1.058525,12.104392
220.811431,0.926621,0.760918,8.496315
220.911431,-1.351347,-4.536193,12.590434
221.011431,-2.751746,-3.922135,12.274282
221.111431,-1.576272,1.676471,3.801597
221.211431,-3.051148,5.007879,8.215158
221.311431,1.224826,-2.569293,14.948562
221.411431,1.643869,-1.210768,7.645368
221.511431,2.048256,-0.924527,10.025029
221.611431,0.212064,-1.416551,13.376776
221.711431,-0.180658,-3.174977,11.094023
221.811431,1.273879,-1.107877,7.829615
221.911431,1.984846,1.712364,6.566803
222.011431,3.733701,-4.285844,10.686944
222.111431,1.424627,-1.840380,8.689237
222.211431,0.179761,0.541675,9.008678
222.311431,-2.265704,-5.133502,12.165409
222.411431,0.067298,0.503390,12.919448
222.511431,-6.564410,-4.020241,14.228023
222.611431,-1.953441,-2.272583,10.832009
222.711431,-0.415155,-4.428217,12.882359
222.811431,3.038286,1.158126,9.339187
222.911431,1.770689,0.371785,9.870692
223.011431,3.629613,1.076770,11.928520
223.111431,1.220040,-1.489532,10.966007
223.211431,1.844866,-2.282155,13.253546
223.311431,1.428216,-1.360320,11.939288
223.411431,-0.445065,1.678864,8.649755
223.511431,2.032703,-3.550949,11.176576
223.611431,1.003490,-2.854338,11.840883
223.711431,-1.590629,-0.181256,10.714461
223.811431,-2.357828,1.759323,8.557631
223.911431,3.426223,-2.466402,15.498014
224.011431,-1.399203,-0.916152,8.672486
224.111431,1.021436,-0.901795,8.885448
224.211431,0.369990,-0.668495,7.995018
224.311431,0.644267,-3.622734,13.804194
224.411431,0.940978,-2.788536,11.976377
224.511431,1.904687,-1.901397,12.206087
224.611431,1.326521,-0.534497,8.468798
224.711431,1.083650,0.545264,10.235897
224.811431,2.104787,-1.369891,13.651053
224.911431,0.280259,-3.111567,12.719647
225.011431,-0.248854,-1.872683,13.789837
225.111431,0.561715,1.656132,6.728318
225.211431,-0.734896,-2.192424,12.887144
225.311431,-0.376870,-3.069692,14.188541
225.411431,-0.295514,-0.284148,9.069695
225.511431,1.411466,0.199502,10.805688
225.611431,2.212464,1.586740,8.483154
225.711431,2.970091,-0.046062,12.160624
225.811431,1.490429,-2.391028,12.785450
225.911431,2.443371,1.465903,7.231110
226.011431,-0.614955,0.811167,6.729515
226.111431,-1.454238,-2.028216,13.355241
226.211431,0.350848,-4.545765,14.954543
226.311431,0.862014,0.294018,7.648957
226.411431,0.232403,0.018544,7.609475
226.511431,-1.378864,-0.180060,8.658130
226.611431,2.929413,-2.392225,17.266010
226.711431,-0.053539,-0.449252,11.924931
226.811431,0.595215,-1.251446,8.971589
226.911431,-0.289532,-1.888236,7.033702
227.011431,1.074078,-1.920539,12.240784
227.111431,2.153840,-1.444068,10.103992
227.211431,0.158225,3.620640,4.039683
227.311431,1.212862,-1.246661,11.266306
227.411431,0.768694,-6.543473,15.422639
227.511431,4.036692,-5.073681,15.344872
227.611431,0.444467,-0.887438,9.121440
227.711431,-0.984946,-0.226720,7.788937
227.811431,-0.149252,2.788536,5.924031
227.911431,2.326123,-5.144269,16.325033
228.011431,2.545066,-2.369493,11.357533
228.111431,1.771885,-1.699203,11.139486
228.211431,0.518644,-2.271387,9.492328
228.311431,-0.384048,0.049651,7.708777
228.411431,2.114358,0.370588,8.976375
228.511431,-0.502493,-8.566605,21.102602
228.611431,1.243969,2.729912,3.065505
228.711431,1.196112,0.624527,6.522535
228.811431,2.295016,-4.163811,14.909080
228.911431,2.757130,-2.227120,11.052149
229.011431,-2.171187,-2.230709,11.391032
229.111431,-0.613759,-2.204388,12.361621
229.211431,1.251147,1.744966,10.243075
229.311431,4.605286,-4.641478,15.174683
229.411431,-0.000897,1.851447,7.796115
229.511431,0.774676,0.175573,6.896115
229.611431,-2.263311,-1.386641,11.238789
229.711431,2.427818,0.643669,6.477072
229.811431,-0.654437,3.255435,1.646860
229.911431,1.041775,0.297607,9.200403
230.011431,-1.305883,-3.621537,11.387443
230.111431,-0.083450,-0.275773,10.432109
230.211431,-1.958226,1.385743,4.419244
230.311431,-0.291924,-1.506282,10.328021
230.411431,0.048156,-0.239880,10.621141
230.511431,0.714856,-0.493520,12.835699
230.611431,0.729213,-0.288933,9.529416
230.711431,0.901496,-1.924129,13.431810
230.811431,0.444467,-3.054139,11.979965
230.911431,-1.067498,0.872184,7.443174
231.011431,-0.095414,-2.004288,10.223933
231.111431,1.442573,-5.551049,12.755539
231.211431,0.308973,-0.323629,10.788939
231.311431,-0.376870,2.288137,4.386941
231.411431,-0.195015,-1.067199,9.535398
231.511431,-0.400798,-2.787339,9.943673
231.611431,-4.832305,-2.125126,10.494322
231.711431,-2.559124,-2.556133,16.000805
231.811431,0.589233,2.611467,3.380161
231.911431,-0.871287,-4.211667,16.679470
232.011431,-0.307478,-2.832803,16.109678
232.111431,2.370390,1.409672,8.351549
232.211431,1.251147,-5.213662,13.473685
232.311431,0.133101,0.623330,10.330414
232.411431,2.631208,3.870690,2.500500
232.511431,2.534298,-1.949253,16.304693
232.611431,4.398307,-5.976075,18.620945
232.711431,-2.403291,-0.104686,7.222735
232.811431,1.739582,-11.759228,15.537495
232.911431,-2.647658,5.056931,5.325526
233.011431,8.401200,-4.452445,22.074686
233.111431,-0.320638,-3.628716,12.204891
233.211431,-5.040481,1.639383,6.988238
233.311431,0.030209,-6.450152,12.343675
233.411431,5.530710,-2.755036,11.357533
233.511431,10.309177,-12.416357,22.827528
233.611431,-1.395614,9.914660,-4.418646
233.711431,0.477966,-9.600902,19.505692
233.811431,1.738386,-7.783553,22.171595
233.911431,-1.089033,10.143175,-2.727220
234.011431,1.453341,4.207181,9.473185
234.111431,1.363610,-3.537788,16.416260
234.211431,-1.884049,9.109177,-16.506289
234.311431,2.727220,-5.968896,17.334206
234.411431,1.143470,-1.402194,9.764212
234.511431,1.338485,3.907779,3.856632
234.611431,-0.381655,-0.404985,9.856336
234.711431,-1.486541,-3.127120,13.313366
234.811431,-1.374078,4.846363,6.122635
234.911431,-1.269691,-3.840480,12.894323
235.011431,0.409771,-0.992722,13.853247
235.111431,2.604887,-0.412164,11.727223
235.211431,3.852444,0.781257,11.747562
235.311431,0.021835,-1.202393,13.380365
235.411431,1.866402,-2.398206,12.141481
235.511431,12.104692,-23.296223,66.684975
235.611431,-3.262913,-2.787339,9.670892
235.711431,0.671785,-1.560120,18.984955
235.811431,1.406681,-6.748358,8.798110
235.911431,4.966902,-0.494716,3.087040
236.011431,-5.269295,4.824828,-7.371688
236.111431,-0.619741,-9.134003,24.084358
236.211431,1.942972,22.511375,-6.197411
236.311431,-7.079166,-5.076074,12.385550
236.411431,-7.951649,-8.074580,16.067804
236.511431,-2.278864,3.657728,2.596213
236.611431,-0.440279,-1.162912,5.834300
236.711431,4.446164,-1.017847,4.528118
236.811431,-3.285645,2.466701,10.025029
236.911431,1.660619,6.434898,-8.104191
237.011431,-0.375673,-8.521140,27.651758
237.111431,3.773481,8.615956,-2.397907
237.211431,-0.987338,3.315256,13.288241
237.311431,-2.788835,4.357928,6.260222
237.411431,-1.280459,5.133801,0.033200
237.511431,1.807778,-7.474879,25.338795
237.611431,2.009971,6.513862,-2.318944
237.711431,0.081655,0.134895,12.362818
237.811431,-0.459422,-5.845666,18.318254
237.911431,-4.398905,8.617152,-2.262713
238.011431,-2.915654,-5.909076,9.444471
238.111431,3.844069,12.915560,-1.643869
238.211431,2.795415,-13.475779,21.681965
238.311431,-2.812763,-8.230113,14.542679
238.411431,2.072184,3.335595,3.255734
238.511431,-3.684349,-2.267798,8.493922
238.611431,-0.576670,-5.505586,10.259826
238.711431,-1.167997,-1.988735,17.683857
238.811431,2.468496,3.837190,-1.078864
238.911431,2.000400,12.688241,-23.099712
239.011431,4.212564,-4.873581,19.328623
239.111431,0.567697,-9.232108,27.110680
239.211431,-0.846162,11.433804,-15.654145
239.311431,3.057429,-3.440879,13.758730
239.411431,6.572186,-0.431306,11.387443
239.511431,-1.704288,1.717149,-2.378765
239.611431,1.327717,-7.234101,19.260427
239.711431,-3.040380,-3.140281,10.514661
239.811431,-1.676770,3.037688,8.410173
239.911431,-4.042076,-5.212465,17.031513
240.011431,-0.032004,-12.191133,22.570299
240.111431,0.029013,-1.161715,10.286146
240.211431,-0.900000,-0.483948,13.242778
240.311431,-6.640980,-4.214060,18.690638
240.411431,0.666999,-8.899206,15.743278
240.511431,-0.895215,-8.875278,17.779570
240.611431,4.691428,4.840381,7.804490
240.711431,-0.441476,-12.839887,21.787249
240.811431,0.093619,-3.662215,18.971794
240.911431,2.338087,-2.380260,9.237492
241.011431,0.918246,12.221342,-3.573381
241.111431,1.944168,0.358624,2.207080
241.211431,1.185344,-17.100307,38.697926
241.311431,2.959323,11.959328,-4.538287
241.411431,-0.477368,5.790930,9.661321
241.511431,1.022633,-8.819047,20.354546
241.611431,1.816152,12.204592,-3.733701
241.711431,1.758725,-7.324131,15.736099
241.811431,3.768696,-4.114758,12.588041
241.911431,-1.375275,-2.001895,13.853247
242.011431,-1.152443,7.036992,-0.724427
242.111431,-0.252443,-3.328416,13.646268
242.211431,4.230510,-6.011967,18.075083
242.311431,0.311366,4.644170,9.908978
242.411431,0.359223,6.935297,-0.000299
242.511431,2.476871,-5.605187,24.156143
242.611431,2.901896,4.509872,-0.443270
242.711431,-3.301198,3.739084,2.584249
242.811431,5.913562,-4.740780,10.877473
242.911431,2.585744,-4.910670,19.345373
243.011431,1.296611,2.435594,5.928816
243.111431,2.954538,15.216558,-10.870593
243.211431,3.064608,-4.570889,15.739688
243.311431,1.089632,-7.312167,22.418056
243.411431,-1.890031,8.105986,5.181957
243.511431,-3.266502,1.036092,7.238288
243.611431,3.007180,0.331107,11.464013
243.711431,-1.694717,-8.091330,20.890837
243.811431,-2.250151,3.768995,7.470691
243.911431,-1.152443,5.148158,2.210669
244.011431,0.116351,-3.899404,13.240385
244.111431,-1.582254,-4.593621,10.585249
244.211431,0.958026,-4.126722,16.876877
244.311431,-1.747359,-5.175376,11.607583
244.411431,-1.772483,0.988236,12.902698
244.511431,-2.239383,1.422832,8.033304
244.611431,2.214856,0.209073,2.259722
244.711431,-2.492125,7.269096,4.901697
244.811431,4.692624,-11.767603,31.716864
244.911431,1.186541,0.996611,6.643373
245.011431,-2.478964,0.352642,10.065707
245.111431,-3.934399,-1.863111,8.405388
245.211431,0.464806,1.462314,11.385050
245.311431,-1.177568,3.110669,1.433899
245.411431,-1.768894,2.382952,9.074481
245.511431,2.685345,0.091825,10.513465
245.611431,-0.333799,-8.637193,24.062822
245.711431,1.434198,10.761122,-9.741779
245.811431,0.690928,-3.226422,15.931413
245.911431,0.651446,9.220443,-12.431611
246.011431,-1.919941,-0.987937,10.411770
246.111431,1.165006,-3.387040,12.894323
246.211431,-1.159622,8.060522,1.022034
246.311431,0.964008,-6.648757,16.287943
246.411431,-0.882054,-5.602794,14.176577
246.511431,5.956633,21.290140,-24.678675
246.611431,7.072287,-3.270689,14.406288
246.711431,-0.521635,-5.716453,27.620651
246.811431,-1.852942,7.635497,2.187937
246.911431,8.217851,4.095914,9.349955
247.011431,0.555733,7.034599,0.648455
247.111431,-2.885744,-5.335695,8.140981
247.211431,-0.661615,2.386541,0.898804
247.311431,4.464110,0.918844,7.263413
247.411431,-4.126123,2.721537,3.703491
247.511431,0.197707,-2.385046,9.727123
247.611431,0.452842,1.768894,-1.324128
247.711431,1.373181,6.117550,7.143772
247.811431,-1.025624,0.038883,10.294521
247.911431,3.477669,-10.366904,19.142879
248.011431,1.477269,8.851649,-5.699404
248.111431,-2.985345,6.075676,2.541178
248.211431,-2.794817,-5.454140,16.501204
248.311431,0.216850,-0.640977,25.928925
248.411431,-2.571088,-3.607180,7.913363
248.511431,2.749951,11.610873,12.918251
248.611431,3.307778,-4.562515,5.644968
248.711431,4.423432,-2.194817,17.597715
248.811431,1.310968,8.535796,-1.387538
248.911431,2.360819,0.990629,6.230312
249.011431,-1.199103,3.760620,16.170696
249.111431,1.952543,-6.899106,13.774283
249.211431,0.544965,-1.963610,13.730017
249.311431,-4.865805,8.102397,-3.210570
249.411431,0.324527,-4.816154,15.702600
249.511431,0.908674,2.848356,5.161318
249.611431,0.754337,-7.310970,11.994323
249.711431,-3.550351,8.462517,-8.739784
249.811431,-3.236592,-8.535498,18.333807
249.911431,0.335294,-1.213161,13.812569
250.011431,0.023031,9.957731,-4.714159
250.111431,2.232803,-1.341177,10.840384
250.211431,5.720940,-2.700899,9.451650
250.311431,0.428913,-2.669792,12.155838
250.411431,-0.106182,3.120241,3.752544
250.511431,-0.242871,4.634598,4.858626
250.611431,2.948556,0.236590,8.350353
250.711431,-4.572385,2.901298,3.618546
250.811431,1.099203,3.220739,1.918745
250.911431,1.443769,-1.933700,10.174581
251.011431,1.070489,3.798905,1.322633
251.111431,0.750748,-9.870094,14.373984
251.211431,-0.449851,-10.533205,28.072895
251.311431,1.743171,11.588140,-11.471491
251.411431,1.682154,-0.104686,12.043375
251.511431,3.013162,-3.899404,9.379865
251.611431,-1.474577,-0.077169,11.373086
251.711431,2.446960,-6.337690,12.467204
251.811431,-0.801895,4.299304,11.193325
251.911431,-0.679562,0.424427,10.186545
252.011431,-3.760919,-7.385148,9.824033
252.111431,-4.623831,5.398208,-4.708178
252.211431,-0.656830,1.374976,8.486744
252.311431,0.840479,-2.411367,13.643875
252.411431,3.252743,-5.479265,14.150256
252.511431,0.592822,2.583949,0.889233
252.611431,2.711666,2.806482,13.394722
252.711431,1.822134,6.154639,2.494518
252.811431,-3.142075,0.278465,4.418048
252.911431,-4.443172,1.972284,3.541976
253.011431,3.774678,-1.689632,9.470792
253.111431,-3.527320,-11.893226,15.663118
253.211431,-7.104290,6.718448,-4.189833
253.311431,5.322236,-5.462515,15.827026
253.411431,1.218844,-7.842476,24.284458
253.511431,0.467199,4.621438,6.669694
253.611431,0.613161,-5.791827,16.244873
253.711431,-0.088235,-5.974878,11.581262
253.811431,1.600798,8.262715,-8.709874
253.911431,0.437288,2.119443,3.518048
254.011431,-3.174378,-4.892724,18.324236
254.111431,0.323330,-10.435100,17.994923
254.211431,-0.113360,-4.631907,14.570196
254.311431,-3.985844,5.426922,14.102100
254.411431,-0.904786,1.244567,5.548059
254.511431,2.442175,0.002991,9.403793
254.611431,-1.733002,0.990629,5.930013
254.711431,1.052543,4.213162,5.010571
254.811431,2.907878,-2.266601,11.455638
254.911431,3.762714,-8.560622,20.153250
255.011431,-2.736193,5.320441,4.620541
255.111431,0.984347,1.292423,11.621940
255.211431,0.403789,-2.165804,11.496316
255.311431,-0.838983,1.653740,-7.329814
255.411431,-3.734598,-18.845572,33.108891
255.511431,0.817747,7.753942,-7.511669
255.611431,1.527817,4.499105,4.122534
255.711431,6.191429,2.814857,8.592327
255.811431,4.626822,-20.042582,36.484562
255.911431,-3.307180,9.634701,-4.060620
256.011431,-0.034397,-4.186543,16.088142
256.111431,-1.737787,-13.546368,17.950657
256.211431,2.782254,6.457630,0.515653
256.311431,-1.571486,-0.402592,3.387340
256.411431,4.504788,-1.768595,13.236795
256.511431,-0.137288,-4.817350,10.362717
256.611431,0.328116,-4.838886,17.522341
256.711431,2.013560,-0.192024,9.425328
256.811431,2.293820,-1.503889,17.415562
256.911431,5.236094,0.125324,8.265408
257.011431,1.986043,9.793823,-2.481656
257.111431,1.033400,-8.955737,25.871498
257.211431,-1.783251,6.944869,-1.836491
257.311431,-3.474678,1.384547,7.253842
257.411431,0.291027,-3.847659,12.987643
257.511431,2.036292,8.098807,1.854138
257.611431,1.865205,-2.157429,5.309973
257.711431,-0.145663,5.621937,15.038292
257.811431,0.239581,-2.242673,6.089136
257.911431,1.275075,-5.837291,19.344177
258.011431,0.965205,7.361519,-4.315455
258.111431,-0.968196,10.272687,-8.077870
258.211431,2.426621,-5.747560,18.251255
258.311431,3.177070,-1.188036,9.158528
258.411431,4.951348,-5.409873,11.339288
258.511431,0.107976,6.588039,8.731111
258.611431,1.003490,11.057832,-1.319343
258.711431,-2.065903,-19.732712,40.111782
258.811431,1.112363,3.367898,4.421637
258.911431,0.515055,8.603992,16.814663
259.011431,-5.493023,0.573978,13.391132
259.111431,-2.754139,-3.665804,10.245468
259.211431,0.225224,1.737488,4.284050
259.311431,4.665107,4.530211,6.808478
259.411431,-1.008874,-5.396712,8.428120
259.511431,-2.536392,1.547259,6.725925
259.611431,0.334098,-1.320838,22.506590
259.711431,3.450151,-0.134596,3.851846
259.811431,1.543371,2.813660,0.293121
259.911431,-1.129711,-8.903992,16.827824
260.011431,-2.374577,6.176174,0.252443
260.111431,0.015852,-5.473283,16.806290
260.211431,2.739184,2.240280,4.673182
260.311431,4.380361,-0.693619,12.643077
260.411431,-0.672383,-3.027818,9.503095
260.511431,-3.928416,-0.861117,10.975578
260.611431,0.116351,-1.068395,3.538387
260.711431,1.441377,2.463112,10.910973
260.811431,4.547859,-6.778268,9.768997
260.911431,-5.259723,-8.847761,7.732706
261.011431,6.690631,2.569592,13.607983
261.111431,2.119143,9.549456,-7.903194
261.211431,-5.566005,-14.179568,27.299713
261.311431,4.334898,4.574778,-4.101298
261.411431,-0.120538,-7.011569,9.600004
261.511431,-0.226122,-0.200399,12.763914
261.611431,-0.513260,-1.678864,10.211670
261.711431,0.410967,12.639189,-3.375974
261.811431,2.096412,-2.258226,14.481662
261.911431,1.683351,10.575378,2.586641
262.011431,1.786242,1.367797,5.046463
262.111431,-4.719842,-16.311573,26.090740
262.211431,5.404788,-1.200001,14.378771
262.311431,1.731207,2.032105,8.140981
262.411431,2.633600,8.113164,-5.578567
262.511431,1.410270,-4.599603,16.004395
262.611431,3.046661,7.629515,-0.203689
262.711431,0.543769,-3.748357,10.912169
262.811431,-1.910370,2.890530,8.589934
262.911431,-1.840679,-5.360820,16.494026
263.011431,-0.226122,3.830012,0.241675
263.111431,1.454537,-13.565510,22.957937
263.211431,4.028317,2.562414,2.081457
263.311431,10.296017,-0.399003,12.171391
263.411431,-1.189532,5.582455,5.146962
263.511431,0.548555,-12.115758,20.333010
263.611431,2.715255,-7.336095,17.130816
263.711431,-1.288834,0.994218,-1.354038
263.811431,5.752047,-7.248757,20.383259
263.911431,0.338884,-0.582353,7.918149
264.011431,-0.043968,11.007583,5.131408
264.111431,-1.086641,12.345768,-7.435098
264.211431,1.074078,0.328714,25.259832
264.311431,-5.721538,3.172883,-17.266310
264.411431,0.659821,-4.200899,11.969198
264.511431,0.012263,-3.595216,21.394526
264.611431,2.171786,1.625026,8.339585
264.711431,0.878764,-2.149054,9.444471
264.811431,2.988037,-2.043770,12.812967
264.911431,-0.272782,-0.886242,10.299307
265.011431,1.880759,-3.013461,9.323633
265.111431,-0.127717,-1.219143,10.087243
265.211431,1.970490,-3.701697,10.727622
265.311431,2.642274,-1.255036,15.507585
265.411431,-0.312263,-0.532104,11.297413
265.511431,-0.576670,5.516653,6.102296
265.611431,0.274277,-2.172982,12.781860
265.711431,1.738386,-4.630710,15.909878
265.811431,0.952942,2.337489,6.105885
265.911431,1.604388,0.070289,9.814461
266.011431,-0.351745,0.618545,7.477870
266.111431,1.966900,-0.542872,11.858830
266.211431,0.830908,-5.067699,10.182956
266.311431,2.660221,-1.122234,5.770890
266.411431,-1.390828,2.323132,4.100999
266.511431,-0.599402,-5.419444,14.588142
266.611431,0.353240,-1.198804,16.007984
266.711431,0.458824,-2.687738,14.906687
266.811431,1.694118,11.208579,0.938286
266.911431,-8.285747,10.294222,27.992735
267.011431,7.493722,1.487438,2.386841
267.111431,-1.346561,39.955952,-1.995614
267.211431,-6.441179,-18.174086,18.914366
267.311431,0.722034,3.912564,-3.951747
267.411431,1.042972,-1.092324,9.808479
267.511431,-0.909572,1.269691,5.810371
267.611431,1.983650,-1.168894,-1.404288
267.711431,0.682553,-31.447073,47.812187
267.811431,-3.254538,11.530713,-19.630716
267.911431,-4.309175,-27.159136,35.639599
268.011431,0.510269,5.947660,-0.769891
268.111431,5.761618,3.101098,7.056434
268.211431,3.786642,5.569295,1.217049
268.311431,1.127917,-10.518848,22.508984
268.411431,4.047460,-8.528319,16.130018
268.511431,-1.037588,-2.641078,13.069298
268.611431,0.756730,-1.381855,16.744076
268.711431,1.307379,2.515754,6.754639
268.811431,4.054638,2.228316,9.434899
268.911431,0.942174,2.870191,3.988237
269.011431,-1.387239,-3.157030,12.821342
269.111431,-0.837787,3.489034,1.771287
269.211431,1.977668,-7.013961,20.967407
269.311431,3.899105,2.633002,3.519244
269.411431,4.399504,14.999708,-11.818749
269.511431,-1.435095,-3.552145,19.936699
269.611431,-4.255336,-13.658830,20.198713
269.711431,-9.852746,-0.662513,8.860323
269.811431,4.778766,4.964808,4.532903
269.911431,-0.828216,19.069599,-8.532805
270.011431,5.167899,-5.553442,20.641685
270.111431,3.068197,-5.219644,20.075483
270.211431,0.449252,-5.400301,14.730814
270.311431,0.688535,-0.066401,6.562017
270.411431,-2.198705,-9.437891,21.674786
270.511431,0.204885,-0.603889,9.955638
270.611431,-0.809073,-2.188535,11.926127
270.711431,3.317349,1.469492,10.217651
270.811431,-1.689931,0.853041,9.631111
270.911431,3.137589,-5.053342,13.558630
271.011431,0.040977,-1.527817,7.934899
271.111431,5.000401,3.263810,10.895419
271.211431,-2.458625,19.312771,-33.032917
271.311431,-1.206282,0.601496,20.385653
271.411431,-4.154838,-6.981658,13.276278
271.511431,7.732107,1.056431,10.351949
271.611431,-1.841875,-7.124031,18.682262
271.711431,-1.249353,5.808876,8.435298
271.811431,-1.907977,3.165704,3.152843
271.911431,-1.523630,-12.307484,22.950758
272.011431,1.601995,8.773883,-1.363610
272.111431,0.517448,-4.891528,16.818253
272.211431,0.611964,3.529712,6.295217
272.311431,-0.321835,0.690329,4.815556
272.411431,-0.139681,3.591926,6.361020
272.511431,-0.418744,-4.112365,13.052548
272.611431,-0.337388,-7.661519,12.747165
272.711431,-0.275175,15.193526,-7.106982
272.811431,6.239285,-9.343374,20.031216
272.911431,-1.325026,-3.961617,11.317752
273.011431,-5.745466,7.071688,-5.324628
273.111431,-1.928316,-0.330808,15.045470
273.211431,0.742373,-3.394219,16.605291
273.311431,-1.734198,1.837090,12.274282
273.411431,-4.531707,-8.008778,18.087347
273.511431,-2.021636,9.233603,-4.535894
273.611431,-3.819543,-3.984349,13.752748
273.711431,-2.222633,-5.168198,10.378270
273.811431,1.395913,-2.972783,10.294521
273.911431,-4.108177,-5.088038,13.550256
274.011431,-6.284151,-8.759227,10.842776
274.111431,0.981955,-5.366802,11.277074
274.211431,-1.230210,-0.938884,11.423335
274.311431,0.826122,-0.816850,10.150653
274.411431,1.667797,-3.253940,11.696117
274.511431,1.074078,2.795714,16.220945
274.611431,-4.528118,-4.992026,9.641879
274.711431,-0.643669,3.370291,4.444369
274.811431,-5.678467,-0.913759,13.945371
274.911431,1.235594,7.628319,4.329514
275.011431,1.952543,-10.014860,24.061626
275.111431,-0.897608,7.297810,-7.016055
275.211431,2.114358,-5.672186,21.355045
275.311431,-2.774478,-4.506283,12.115160
275.411431,-0.294317,6.306882,1.084248
275.511431,-1.475773,-5.436194,15.094523
275.611431,-0.757627,-2.139482,7.882257
275.711431,2.601297,-0.964008,12.287443
275.811431,2.050649,-0.323629,8.832806
275.911431,-2.186741,-5.612366,10.888241
276.011431,2.387140,0.997807,9.449257
276.111431,0.561715,-1.532603,12.773485
276.211431,3.917051,1.268495,5.522934
276.311431,0.471984,-0.675673,9.208778
276.411431,-3.655635,-0.770190,11.755938
276.511431,-1.640878,-1.168894,11.690135
276.611431,4.691428,-0.542872,0.752842
276.711431,-0.698704,-2.334797,10.343575
276.811431,-0.830609,3.554837,3.322733
276.911431,3.037090,2.613860,5.271688
277.011431,0.750748,0.609871,7.646564
277.111431,-6.188437,-4.245166,12.342479
277.211431,0.314955,2.300101,3.808775
277.311431,0.027817,6.934101,1.442274
277.411431,1.253540,-8.074580,20.260927
277.511431,2.452942,-0.826421,4.223033
277.611431,-2.593820,3.822833,6.307181
277.711431,2.788237,-0.912563,12.319746
277.811431,-1.185943,-3.562913,16.109678
277.911431,-3.049952,2.209173,3.449553
278.011431,-3.515356,-1.677668,11.383854
278.111431,-0.588634,2.543271,3.721437
278.211431,2.014757,-3.225226,10.308878
278.311431,1.730011,0.189930,7.645368
278.411431,5.930312,3.780959,3.807579
278.511431,-4.236193,4.841578,0.690628
278.611431,1.376770,3.971188,7.401001
278.711431,0.933799,-2.694916,14.729618
278.811431,0.866800,-3.145066,12.387942
278.911431,-4.042076,4.714758,-3.435794
279.011431,-0.313460,-6.210870,7.234699
279.111431,1.897508,-3.143870,13.154243
279.211431,1.500001,3.877868,9.120243
279.311431,0.230010,-5.839684,21.486950
279.411431,-4.523332,-1.387837,10.150653
279.511431,0.790230,2.390131,4.287639
279.611431,1.092024,-12.544373,17.621643
279.711431,-1.593022,11.053046,-9.146864
279.811431,-3.911667,3.318845,13.558630
279.911431,-2.483750,-11.635698,23.587549
280.011431,-0.406780,-1.491925,9.979566
280.111431,-0.610170,5.670093,0.909572
280.211431,0.480359,-2.322833,10.310075
280.311431,-4.530510,1.887339,10.599607
280.411431,-0.850948,4.196413,0.149551
280.511431,2.852843,-3.347559,14.606089
280.611431,-0.075075,-2.443670,14.129618
280.711431,-5.185246,-1.098306,11.044971
280.811431,-2.922833,-3.832105,10.652248
280.911431,1.143470,10.877173,-4.812265
281.011431,-0.150449,-11.216954,25.523342
281.111431,8.257631,2.935993,13.056138
281.211431,-1.866103,7.263114,1.196710
281.311431,1.415056,-4.999504,18.841385
281.411431,0.885943,0.365803,1.594218
281.511431,1.777867,-6.265905,26.059633
281.611431,-4.580760,-1.668097,8.343174
281.711431,-6.187241,4.262215,4.299603
281.811431,0.722034,-16.313965,29.204102
281.911431,1.474876,5.713163,-1.285843
282.011431,0.537787,2.233102,8.437691
282.111431,-4.039683,-1.201197,3.155236
282.211431,0.590429,-2.860320,16.867306
282.311431,-3.679563,2.726322,1.874477
282.411431,0.851247,1.353440,7.642975
282.511431,-3.746562,-1.633401,6.672087
282.611431,-1.157229,-1.162912,13.862818
282.711431,0.897907,-0.601496,7.116254
282.811431,2.628815,-0.751047,12.766307
282.911431,1.235594,-2.962015,14.226826
283.011431,-2.082653,12.327823,-2.171786
283.111431,1.707279,-13.731811,21.284456
283.211431,-0.078664,1.566401,14.048262
283.311431,-1.328615,3.347559,5.368597
283.411431,-1.697109,1.914856,6.105885
283.511431,-2.251347,-10.042377,26.480770
283.611431,1.531407,11.777174,-17.507088
283.711431,1.147059,-7.430612,24.207588
283.811431,2.190928,2.495415,2.236990
283.911431,2.224428,3.869493,5.560022
284.011431,-2.736193,-4.586443,16.153946
284.111431,-1.569093,-2.213959,11.504691
284.211431,-1.316651,3.381058,5.234599
284.311431,1.625923,-2.015056,14.816956
284.411431,6.248857,-4.036991,19.881664
284.511431,-0.479761,0.182752,5.962316
284.611431,-0.223729,1.237388,10.395020
284.711431,0.913460,-1.977967,16.072590
284.811431,4.718946,-1.878665,5.806782
284.911431,-2.550749,-1.399801,20.270498
285.011431,0.622732,-6.553044,17.307884
285.111431,1.070489,2.740679,1.634896
285.211431,0.890728,-9.299107,22.144077
285.311431,2.478067,3.421736,-2.761915
285.411431,-0.151645,0.961915,4.987839
285.511431,-1.805983,0.634098,11.454442
285.611431,-0.245264,1.398904,12.139089
285.711431,-0.613759,-8.388339,8.474779
285.811431,-6.370591,10.757532,-9.020044
285.911431,2.821736,-0.978365,12.171391
286.011431,1.934597,-11.244472,21.734606
286.111431,1.500001,10.746765,-4.505984
286.211431,-0.901197,3.961617,4.676772
286.311431,1.394717,-19.759031,32.369209
286.411431,-1.479363,10.915459,-6.963413
286.511431,-0.882054,-6.994819,17.892033
286.611431,-3.164807,-2.523830,13.709678
286.711431,2.484049,-3.767499,9.907782
286.811431,0.271884,0.280858,13.363615
286.911431,-0.362513,-12.343375,22.482662
287.011431,-1.461416,11.759228,-4.631608
287.111431,6.082555,-2.420938,17.596519
287.211431,-1.878067,-9.190233,15.193826
287.311431,0.044566,0.796810,-0.628714
287.411431,1.216451,1.846661,3.909274
287.511431,3.225226,0.395713,12.060125
287.611431,2.845664,-8.063812,21.670000
287.711431,-0.168694,11.149956,-5.093721
287.811431,-0.155234,-3.512664,8.196015
287.911431,-3.085844,-7.340881,16.325033
288.011431,3.445365,6.912566,3.474678
288.111431,0.663410,2.008176,13.814961
288.211431,0.232403,-8.567801,13.326527
288.311431,-1.795215,4.095914,2.034796
288.411431,2.815754,0.879362,10.915758
288.511431,0.222832,-6.998408,15.149558
288.611431,-0.279960,1.492224,7.246664
288.711431,0.513859,1.183550,5.686842
288.811431,-1.351347,-2.872284,13.380365
288.911431,1.366003,-2.146661,13.934603
289.011431,2.633600,-1.715953,11.235200
289.111431,1.661815,2.986243,12.289836
289.211431,2.836093,-1.888236,3.066701
289.311431,2.511566,-4.747958,16.945072
289.411431,-1.423131,2.106282,6.047261
289.511431,-1.736591,3.725924,15.868003
289.611431,2.478067,3.189633,8.420941
289.711431,1.168595,3.453142,16.701004
289.811431,-3.357429,-2.611168,9.795319
289.911431,-3.714259,-0.410967,7.257431
290.011431,3.120839,2.423630,3.512065
290.111431,-0.764806,2.790929,1.705484
290.211431,3.240779,-8.375178,20.471794
290.311431,0.349651,-8.655139,25.990242
290.411431,-0.606581,4.184449,6.933204
290.511431,-1.443470,10.611271,-2.711666
290.611431,1.718047,-3.512664,13.156636
290.711431,-4.359424,7.952845,0.846162
290.811431,1.265504,-7.041479,19.172791
290.911431,-1.316651,3.871886,9.541380
291.011431,-1.248156,1.581955,3.544369
291.111431,1.523032,3.097509,2.247758
291.211431,3.889533,-2.027020,15.566209
291.311431,0.389133,-3.299403,5.666503
291.411431,-1.299901,3.565605,-2.614458
291.511431,1.812563,-3.967599,5.985048
291.611431,2.469692,-14.976677,32.886356
291.711431,1.566102,6.351150,-6.384051
291.811431,0.174975,-3.576073,8.673683
291.911431,0.198903,10.161421,-0.131904
292.011431,5.805885,-7.684251,36.204601
292.111431,0.190528,14.549558,-6.957431
292.211431,0.792623,-5.501997,24.747469
292.311431,-1.870888,-6.021538,17.841784
292.411431,-2.100599,10.722836,-4.519145
292.511431,-0.945464,-3.984349,11.542976
292.611431,-0.037986,-3.105585,17.931515
292.711431,3.673880,3.861119,-0.835693
292.811431,1.753939,-7.354041,20.330618
292.911431,0.182154,7.101599,-9.492926
293.011431,4.734499,-1.625923,11.746367
293.111431,1.807778,-2.696113,15.148362
293.211431,-0.831805,-3.418147,14.298611
293.311431,2.759523,2.634199,19.473389
293.411431,-1.677967,4.322036,6.315556
293.511431,0.900300,1.917249,7.003792
293.611431,2.571387,-1.105484,16.626827
293.711431,-3.008077,-10.350154,28.129126
293.811431,2.159822,1.290030,4.583153
293.911431,-2.179562,-13.801203,34.571800
294.011431,0.178564,5.349155,4.021737
294.111431,2.749951,-5.241179,15.996019
294.211431,0.562912,7.391429,-0.856032
294.311431,-2.658426,-9.364909,24.707987
294.411431,0.965205,-3.928118,4.051946
294.511431,-0.095414,0.047258,13.334902
294.611431,-5.568398,-9.172287,14.047066
294.711431,-4.727021,10.755139,-14.157733
294.811431,-0.992124,7.009475,6.226723
294.911431,-1.163211,-15.705890,20.645273
295.011431,0.823729,4.845167,-4.581358
295.111431,-0.362513,-3.153441,15.451353
295.211431,0.945763,2.606681,2.305186
295.311431,0.875175,-8.618050,17.233707
295.411431,0.271884,14.620147,-5.273183
295.511431,5.280361,-11.210972,25.526932
295.611431,-2.289632,1.162912,9.807282
295.711431,3.325724,4.987540,17.941086
295.811431,0.256331,-7.070193,15.291034
295.911431,8.618947,-12.405589,33.974491
296.011431,-1.423131,15.723836,-17.405392
296.111431,-0.695115,-28.141987,44.500221
296.211431,2.108376,11.667104,-5.467001
296.311431,0.583251,0.849452,16.514364
296.411431,10.687542,-3.232404,18.169899
296.511431,1.349253,-1.404587,8.951250
296.611431,-0.708275,5.547760,2.181955
296.711431,-1.190728,-22.819752,32.970104
296.811431,-2.962314,11.196615,-8.749356
296.911431,-1.602593,4.899005,7.977073
297.011431,0.055334,-3.003890,16.748861
297.111431,0.602393,10.289436,-2.147857
297.211431,1.151845,-12.350554,23.708685
297.311431,-7.384251,8.266305,1.601397
297.411431,-3.032005,18.296419,-11.284851
297.511431,-0.916750,-11.218151,29.477182
297.611431,0.906282,-1.781756,8.867501
297.711431,-8.486744,20.985054,-34.344780
297.811431,-6.572785,-13.462619,12.531811
297.911431,2.627618,-5.145466,16.222141
298.011431,-0.614955,24.125933,-32.496624
298.111431,6.078966,-13.359427,22.689941
298.211431,3.468097,-6.997211,15.803098
298.311431,-4.236193,16.734205,-9.973883
298.411431,1.419841,-11.809477,37.656448
298.511431,-4.443172,17.659630,-15.797714
298.611431,8.141280,-7.431808,25.797319
298.711431,-1.184746,-6.423831,21.448664
298.811431,-0.155234,-1.815255,17.304295
298.911431,0.768694,0.965504,8.985947
299.011431,-3.425625,1.115055,2.507678
299.111431,-2.762514,15.182758,-9.402896
299.211431,1.148256,-24.075684,39.151665
299.311431,1.947758,22.207190,-19.904696
299.411431,3.432205,-11.955440,13.501203
299.511431,3.701397,8.149056,3.372983
299.611431,-3.487838,-0.416949,18.139988
299.711431,2.097608,3.964010,-2.606083
299.811431,4.657928,0.658026,9.772587
299.911431,2.163411,-0.218345,13.382758
300.011431,-1.843072,-15.850656,32.261532
300.111431,2.563012,5.807680,8.612666
300.211431,2.315355,-4.022634,15.107684
300.311431,-3.740580,4.986343,-10.666007
300.411431,-4.778467,-16.730316,16.596916
300.511431,-2.855834,-4.992026,12.182159
300.611431,-3.878167,6.780661,0.846162
300.711431,-0.433101,-8.694620,13.375580
300.811431,-0.014058,12.258430,1.019642
300.911431,-1.047159,-3.657429,16.768003
301.011431,-1.158425,-5.235197,-0.602393
301.111431,1.392324,1.797608,3.131308
301.211431,6.963413,-13.992928,23.656940
301.311431,2.486442,-0.305683,-1.767100
301.411431,-1.227817,4.857131,-2.600101
301.511431,0.851247,-1.611566,11.753545
301.611431,-4.154838,-5.198108,-6.374479
301.711431,1.071685,0.467498,-0.899103
301.811431,-0.258425,-6.739983,31.338499
301.911431,-3.882953,-10.285548,34.260433
302.011431,0.177368,2.814857,-2.553441
302.111431,-1.753341,-0.488734,-4.223332
302.211431,1.673779,-9.713365,14.633606
302.311431,-3.632903,3.584747,8.854342
302.411431,5.734100,18.905691,-5.169095
302.511431,-6.667301,-30.087053,42.886559
302.611431,3.259922,5.921339,-8.740981
302.711431,-1.191925,-3.786642,1.669592
302.811431,1.668994,-0.690030,6.270990
302.911431,1.249951,5.729913,-13.290934
303.011431,-2.376970,-22.101606,32.342888
303.111431,2.268695,30.661928,-20.247168
303.211431,-1.846661,-16.688442,-8.453842
303.311431,1.103989,16.439888,5.993423
303.411431,-5.459524,-3.130709,-17.729620
303.511431,-2.140081,-18.026928,10.900205
303.611431,2.869593,7.289435,0.854537
303.711431,0.996312,6.420541,12.822538
303.811431,-0.649651,-10.400404,7.991429
303.911431,-5.260920,-8.224132,25.920551
304.011431,4.765605,0.786042,-0.708874
304.111431,1.844866,4.043272,2.967399
304.211431,0.032602,-4.660620,22.931616
304.311431,3.714558,1.505385,9.975977
304.411431,3.780660,8.328518,3.551547
304.511431,2.770290,-8.950952,11.323734
304.611431,-0.970589,7.332506,-5.274379
304.711431,-4.176373,-8.973683,21.144476
304.811431,0.255135,4.398606,3.981059
304.911431,-0.160020,2.212763,0.069093
305.011431,-2.926422,-2.956033,5.971887
305.111431,-0.528814,-5.692525,13.235600
305.211431,-3.875774,0.936790,2.679961
