Time (s),Gyroscope x (rad/s),Gyroscope y (rad/s),Gyroscope z (rad/s)
0.133037,0.009468,-0.008399,0.001985
0.233037,-0.007025,-0.009010,-0.001069
0.333037,-0.003360,-0.005956,0.017867
0.433037,-0.003360,0.009315,0.025197
0.533037,-0.072996,0.032528,-0.071927
0.633037,-0.027794,-0.141564,0.052686
0.733037,0.033291,-0.023670,0.058794
0.833037,0.062612,-0.120184,-0.025503
0.933037,-0.000916,-0.420721,0.028863
1.033037,-0.036956,0.022143,-0.054213
1.133037,-0.003360,0.060016,-0.205092
1.233037,0.104913,0.016646,-0.138510
1.333037,-0.043676,-0.114076,0.050853
1.433037,-0.044286,-0.089031,0.095445
1.533037,0.111632,0.027641,-0.038331
1.633037,-0.163402,-0.076203,-0.433549
1.733037,-0.121253,0.049020,0.127820
1.833037,0.272896,-0.151948,-0.010843
1.933037,0.122628,-0.374297,0.436909
2.033037,-0.129805,0.017256,-0.152559
2.133037,-0.003360,0.202954,-0.933833
2.233037,-0.075440,-0.167830,0.479668
2.333037,-0.205397,-0.154850,-0.284655
2.433037,-0.209673,0.562285,-1.147324
2.533037,0.059710,-0.216545,-0.017715
2.633037,0.296719,-0.574502,1.210699
2.733037,-0.072844,-0.211048,0.538767
2.833037,-0.008094,0.133470,0.032986
2.933037,0.146451,-0.267246,1.008509
3.033037,-0.080174,-0.052838,0.718356
3.133037,0.220974,0.127362,-0.489900
3.233037,0.023670,0.670405,-0.907719
3.333037,0.073149,0.151796,-0.376893
3.433037,0.072538,0.024128,-0.032375
3.533037,0.241743,0.060168,-0.187530
3.633037,-0.240827,0.269689,-0.347572
3.733037,0.177604,0.039400,-0.288320
3.833037,0.026725,0.044286,-0.726908
3.933037,-0.282364,0.178062,-0.803264
4.033037,0.871526,0.013133,-0.054365
4.133037,-0.250600,-0.515250,0.031153
4.233037,-0.152254,0.344823,-0.455692
4.333037,0.018173,-0.281906,0.376893
4.433037,0.434160,-0.284960,0.246171
4.533037,-0.045355,0.148741,-0.403770
4.633037,0.224639,-0.332606,0.701253
4.733037,-0.072844,-0.336271,0.912606
4.833037,0.403006,-0.106593,0.353070
4.933037,0.039552,0.532964,-0.695144
5.033037,-0.580458,0.196387,-0.672543
5.133037,-0.294581,-0.057725,-0.067804
5.233037,0.543501,-0.310616,-0.086740
5.333037,-0.702627,-0.286182,0.399494
5.433037,-0.238383,-0.416903,0.527161
5.533037,0.021838,-0.016187,0.280990
5.633037,0.010843,-0.003971,0.151490
5.733037,-0.245713,-0.026572,-0.577861
5.833037,1.104870,0.170732,-0.904665
5.933037,0.164776,-0.163402,0.122169
6.033037,-0.286640,-0.641084,0.825255
6.133037,-0.372770,-0.162791,0.538767
6.233037,-0.521816,-0.008857,0.234565
6.333037,-0.253654,-0.101706,0.058641
6.433037,-0.425302,0.245866,-0.389110
6.533037,-0.193180,0.204328,-0.314586
6.633037,0.330316,0.170121,-0.368952
6.733037,0.572211,0.090711,-0.299315
6.833037,-0.191959,-0.032069,0.007941
6.933037,-0.125987,-0.217767,0.117283
7.033037,0.181269,-0.052227,0.134386
7.133037,0.056656,0.125529,0.039094
7.233037,0.267398,0.094987,-0.078799
7.333037,-0.436909,0.045508,-0.042759
7.433037,-0.289694,-0.118810,0.210742
7.533037,-0.259152,-0.097430,0.229679
7.633037,0.941163,-0.123086,0.352459
7.733037,0.426219,0.531132,-0.185087
7.833037,0.903901,0.011912,-0.591300
7.933037,-0.751495,-0.053449,-0.001833
8.033037,0.122017,-0.187225,0.179589
8.133037,-0.271369,-0.054060,0.089795
8.233037,0.448820,0.222043,-0.340853
8.333037,0.034055,0.066888,0.000611
8.433037,-0.027030,-0.219600,0.749510
8.533037,0.381627,-0.032069,0.265719
8.633037,0.049326,0.076661,-0.172870
8.733037,-0.108884,0.149352,-0.109342
8.833037,0.081701,-0.010079,-0.045203
8.933037,-0.238994,-0.025961,-0.058030
9.033037,-0.418583,-0.143855,0.390942
9.133037,-0.237161,0.126140,-0.083075
9.233037,-0.065513,0.191501,-0.412933
9.333037,-0.152865,-0.146298,-0.143549
9.433037,-0.833959,-0.210437,0.268773
9.533037,-0.524871,-0.207993,0.026877
9.633037,0.153170,-0.117588,-0.142327
9.733037,-0.357498,-0.124307,-0.207077
9.833037,-0.166303,-0.200663,-0.014660
9.933037,-0.552359,-0.348488,0.383001
10.033037,-0.303133,-0.283739,0.378725
10.133037,0.090864,0.019242,0.558925
10.233037,-0.944523,-0.102928,0.499062
10.333037,-0.046577,0.065666,-0.254112
10.433037,-0.083839,0.066888,-0.229679
10.533037,-0.163860,-0.024128,0.116061
10.633037,-0.034360,-0.005803,-0.120948
10.733037,-0.064292,-0.342991,-0.021991
10.833037,0.214255,-0.115145,0.286487
10.933037,0.660173,0.020463,-0.488067
11.033037,-1.361273,0.036956,-0.555871
11.133037,1.161068,-0.143855,0.070247
11.233037,-1.356997,-0.021074,0.398883
11.333037,1.540404,0.163402,-0.038483
11.433037,-0.451569,0.117588,-0.095903
11.533037,0.832432,-0.349710,0.222959
11.633037,-0.140648,-0.214102,0.528383
11.733037,0.053602,0.032069,0.186919
11.833037,0.508072,0.430953,-0.202190
11.933037,-0.491885,0.558009,-0.529605
12.033037,-0.025808,0.003360,-0.162485
12.133037,-0.349557,-0.278852,0.216240
12.233037,0.094529,-0.196387,0.405603
12.333037,0.069484,-0.052227,0.188141
12.433037,-0.033138,-0.141411,-0.008552
12.533037,-0.457677,0.189668,-0.120948
12.633037,0.158668,0.173175,-0.376893
12.733037,-0.348946,0.010079,-0.222959
12.833037,0.964375,-0.091322,0.175924
12.933037,0.594813,0.110258,0.328025
13.033037,-0.584734,0.138968,0.011606
13.133037,0.283280,-0.035124,-0.105066
13.233037,-0.058183,0.182338,0.080021
13.333037,-0.259763,0.161569,0.057420
13.433037,-0.338562,-0.160958,0.134386
13.533037,0.230748,0.295345,-0.172259
13.633037,-0.719120,-0.131638,-0.266329
13.733037,-0.259152,-0.025961,-0.229679
13.833037,0.142786,-0.017409,-0.242506
13.933037,0.737751,-0.407741,0.153934
14.033037,-0.555413,0.131638,0.045203
14.133037,0.318710,0.283739,-0.310310
14.233037,0.269231,0.052838,-0.065972
14.333037,0.883132,-0.275187,-0.144771
14.433037,1.795738,-0.475545,0.349405
14.533037,-1.780314,-0.215935,0.311532
14.633037,0.694381,-0.271522,0.039094
14.733037,0.999193,-0.306340,-0.073913
14.833037,-0.722174,-0.488372,0.546097
14.933037,-0.212728,-0.274576,0.562590
15.033037,0.518457,0.079105,0.084297
15.133037,1.112200,1.096776,-0.538767
15.233037,0.302828,1.118767,-0.844191
15.333037,1.368145,0.501811,-0.412322
15.433037,-1.147324,-0.365592,0.486845
15.533037,8.212841,-0.287404,-0.261443
15.633037,-3.605526,0.972163,0.285266
15.733037,1.592937,0.352153,0.256556
15.833037,2.503710,0.510974,-0.152712
15.933037,-3.381956,-0.757145,0.172870
16.033037,0.833654,0.240979,0.223570
16.133037,0.515402,0.176840,-0.282822
16.233037,-0.293359,0.400410,-0.477072
16.333037,-0.676361,0.134692,0.014049
16.433037,0.397509,-0.167678,0.548541
16.533037,0.426830,-0.040010,0.387888
16.633037,0.423775,-0.039400,0.266329
16.733037,0.296719,-0.129194,0.047035
16.833037,-0.207841,-0.430953,-0.219294
16.933037,0.460426,-0.010690,-0.192417
17.033037,-0.159584,-0.187225,-0.102622
17.133037,-0.443628,0.065666,-0.749510
17.233037,0.217309,0.048562,-0.145382
17.333037,-0.011148,-0.373533,0.634059
17.433037,-0.819299,-0.447446,0.643222
17.533037,-0.593285,0.138357,0.084908
17.633037,0.503185,0.235482,-0.207077
17.733037,0.621079,0.155461,-0.319473
17.833037,0.344976,0.374755,-0.066582
17.933037,2.064511,0.178673,-0.511279
18.033037,0.321764,0.164012,0.239452
18.133037,0.379183,0.186614,-0.335355
18.233037,0.412169,-0.375976,-0.169205
18.333037,-0.077730,-0.013744,0.319473
18.433037,-0.542585,-0.359484,0.770889
18.533037,0.716371,0.294123,0.074523
18.633037,-0.109494,0.350932,-0.201580
18.733037,-0.212117,0.003360,-0.240674
18.833037,0.403617,0.581221,0.109342
18.933037,0.090864,-0.002749,-0.041538
19.033037,-0.334897,0.564117,-0.206466
19.133037,-0.356888,0.361927,-0.372617
19.233037,-0.589009,0.216545,-0.167983
19.333037,0.054213,0.070553,-0.447140
19.433037,-0.446071,0.155461,-0.398272
19.533037,-0.110716,0.030237,-0.184476
19.633037,0.009010,0.074829,-0.478904
19.733037,0.183101,0.667351,-0.851521
19.833037,0.688272,0.611153,-1.119225
19.933037,0.878856,0.428509,-0.846634
20.033037,0.071927,0.394913,-0.891837
20.133037,0.149505,0.005803,-0.432480
20.233037,0.442712,-0.075440,-0.610847
20.333037,-0.329399,-0.045508,-0.817924
20.433037,0.038331,0.132248,-0.444086
20.533037,0.847703,-0.386972,-0.229679
20.633037,-0.074676,-0.087046,-0.160653
20.733037,-0.634212,0.184781,-0.385445
20.833037,0.454318,-0.047952,-0.840526
20.933037,0.446377,0.129805,-1.036150
21.033037,0.376740,0.148741,-0.825866
21.133037,-0.066124,0.229984,-0.930320
21.233037,-0.262206,-0.095598,-0.708583
21.333037,-0.213949,-0.219600,-0.338409
21.433037,0.292443,-0.193944,-0.243117
21.533037,0.772569,-0.079105,-0.087351
21.633037,-0.157140,-0.390637,0.061085
21.733037,0.263733,-1.105939,0.297483
21.833037,-4.043503,1.505433,0.226624
21.933037,1.448166,-1.007593,-0.019547
22.033037,-1.055697,0.462106,-0.241285
22.133037,1.680899,-0.081548,-0.980563
22.233037,-0.817466,-0.722938,-0.003054
22.333037,-0.496772,-0.567172,0.722021
22.433037,0.854423,-0.466382,0.348794
22.533037,0.465924,-0.374144,-0.005498
22.633037,0.556940,0.007025,-0.168594
22.733037,1.289957,-0.215935,-0.418430
22.833037,0.341311,-0.281295,-0.312754
22.933037,0.034055,-0.555566,0.003665
23.033037,-0.828462,-0.131638,0.252891
23.133037,0.330927,-0.369868,-0.007941
23.233037,-0.083839,0.052838,-0.187530
23.333037,-0.519984,-0.242201,0.455692
23.433037,0.147061,-0.350321,0.758061
23.533037,-0.918256,-0.473712,0.501506
23.633037,0.743248,0.086435,0.024434
23.733037,-0.615276,0.192111,-0.069637
23.833037,-0.458288,-0.107204,0.258999
23.933037,0.694991,-0.358873,0.010995
24.033037,-0.078952,-0.025961,-0.237009
24.133037,0.233191,0.021074,-0.094070
24.233037,-0.139426,0.166456,-0.128889
24.333037,0.090253,0.497535,0.032375
24.433037,0.379183,0.003971,0.029932
24.533037,-0.891990,-0.058336,0.187530
24.633037,1.462216,-0.023518,0.039094
24.733037,0.437825,0.161569,0.066582
24.833037,-1.387540,-0.299010,0.491732
24.933037,0.139120,0.073607,-0.037873
25.033037,-0.742943,0.555566,0.071469
25.133037,2.266091,0.253196,-0.273660
25.233037,-0.766766,0.024128,0.054976
25.333037,-0.602448,-0.371090,0.130721
25.433037,1.114644,0.292290,-0.194860
25.533037,-1.951962,0.326498,0.189363
25.633037,1.287513,0.171343,-0.168594
25.733037,-0.440574,0.115145,-0.117283
25.833037,0.417667,0.139579,-0.026877
25.933037,-0.567630,-0.027794,-0.010384
26.033037,0.006567,0.330163,-0.056198
26.133037,-0.890768,0.094376,-0.014049
26.233037,0.464091,0.071775,-0.175924
26.333037,-0.308631,-0.083991,-0.073302
26.433037,-0.942690,0.201274,-0.164929
26.533037,2.251430,0.207993,-0.150268
26.633037,-0.686134,-0.085824,0.054976
26.733037,0.845260,-0.305118,0.102622
26.833037,0.006567,-0.452943,0.132554
26.933037,-1.207950,0.003360,0.038483
27.033037,1.547734,-0.003360,-0.062917
27.133037,-0.001374,0.136524,0.043981
27.233037,-0.802806,0.162180,0.135608
27.333037,-0.606113,0.383918,-0.028710
27.433037,-0.239605,0.748593,-0.117894
27.533037,0.597256,-0.769362,-0.076356
27.633037,-0.692854,-0.371090,0.145992
27.733037,1.090821,-0.319168,0.166150
27.833037,-0.165692,0.065666,0.119115
27.933037,0.322375,-0.371090,0.148436
28.033037,0.299773,-0.150574,-0.109342
28.133037,-1.825517,0.281295,0.127667
28.233037,1.366923,-0.834112,-0.191195
28.333037,1.111589,-0.035735,-0.002443
28.433037,-1.222000,-0.734544,0.004887
28.533037,1.519635,-0.299621,0.046424
28.633037,0.836708,-0.150574,0.029321
28.733037,-1.385707,-0.043065,0.035429
28.833037,-0.193180,0.181727,0.145992
28.933037,1.128693,0.698504,-0.207688
29.033037,-1.692963,-0.103539,0.100179
29.133037,0.525787,0.402854,-0.006108
29.233037,0.940552,-0.457219,-0.120337
29.333037,0.833043,0.067499,-0.065361
29.433037,1.031568,-0.072385,-0.210742
29.533037,3.042477,0.511585,0.003665
29.633037,-1.002553,0.355819,-0.091627
29.733037,1.628366,-0.424844,-0.267551
29.833037,-1.775428,0.835944,0.097736
29.933037,1.409683,0.573891,-0.304813
30.033037,1.103037,-0.063834,-0.032986
30.133037,-2.179808,0.249531,0.224181
30.233037,1.454275,-0.169510,0.004887
30.333037,-1.655091,0.229984,0.120337
30.433037,-1.881104,0.107204,-0.012217
30.533037,-1.705791,0.547014,-0.196082
30.633037,0.217309,0.506087,-0.193028
30.733037,1.438393,-0.143244,-0.241285
30.833037,2.305185,-0.644749,0.003054
30.933037,-0.383765,-0.689341,0.094070
31.033037,-0.146756,-0.477988,0.335966
31.133037,-0.618330,-0.486540,0.189974
31.233037,1.226429,-0.613596,0.014660
31.333037,-0.567019,0.193333,0.113007
31.433037,-0.515097,-0.001527,0.133776
31.533037,-0.136372,-0.098041,-0.113618
31.633037,0.155613,1.013701,-0.100790
31.733037,1.022406,0.344823,-0.293207
31.833037,0.502575,-0.639252,0.399494
31.933037,0.619246,0.256250,0.017715
32.033037,-0.364829,0.234871,0.108120
32.133037,2.529366,-0.335050,-0.214407
32.233037,0.086588,-0.068720,-0.018325
32.333037,0.978425,-0.018631,0.150879
32.433037,0.862974,0.236092,-0.140495
32.533037,-0.702016,-0.104760,-0.109342
32.633037,0.230137,-0.286793,0.457525
32.733037,0.177604,-0.815176,0.275492
32.833037,-0.727061,-0.179284,0.246782
32.933037,0.121406,-0.082770,0.047646
33.033037,1.203827,0.079716,-0.073302
33.133037,-0.103386,0.272743,0.051922
33.233037,0.315655,0.199442,-0.095903
33.333037,-0.674528,0.237314,-0.208299
33.433037,0.111632,0.052227,0.147214
33.533037,-1.316681,0.230595,-0.028710
33.633037,1.001637,-0.589162,0.018936
33.733037,-1.003775,-0.115756,-0.146603
33.833037,1.296065,-0.139579,-0.241896
33.933037,-0.827851,0.209215,-0.003054
34.033037,-0.348946,-0.384528,-0.222959
34.133037,-0.388652,-0.206772,0.033597
34.233037,0.367577,-0.154239,-0.088573
34.333037,0.448820,-0.121864,0.026266
34.433037,0.037109,-0.321611,0.055587
34.533037,-1.324622,-0.289847,-0.001222
34.633037,0.601532,-0.439505,0.170426
34.733037,0.167830,-0.088267,0.107509
34.833037,0.424997,-0.740041,0.109342
34.933037,-0.023365,-0.027794,-0.092238
35.033037,0.194708,0.013133,0.070247
35.133037,0.822659,0.118199,0.065361
35.233037,0.300384,0.948340,-0.151490
35.333037,0.041385,0.102928,-0.167983
35.433037,0.605197,-0.156071,0.091016
35.533037,-0.146756,0.137135,0.391553
35.633037,0.303438,-0.160958,0.422706
35.733037,0.747524,0.444391,0.064750
35.833037,-0.078341,0.405297,-0.189974
35.933037,-0.132707,0.280684,-0.263886
36.033037,-0.621995,0.080937,-0.030542
36.133037,0.825102,0.491427,-0.224181
36.233037,-0.348946,0.357651,-0.142938
36.333037,-0.135761,0.109647,0.003054
36.433037,0.299162,-0.279463,-0.047035
36.533037,1.327218,0.162180,0.103233
36.633037,-1.160152,-0.709499,0.182032
36.733037,-0.634823,0.001527,0.273049
36.833037,0.215476,0.140189,-0.138051
36.933037,0.126293,0.133470,0.109342
37.033037,-0.031306,0.003971,-0.271827
37.133037,0.181880,0.305729,-0.167983
37.233037,-0.316572,0.217156,-0.002443
37.333037,0.002291,-0.170121,-0.040927
37.433037,0.816550,0.133470,-0.031764
37.533037,0.577098,0.160347,0.120948
37.633037,0.079868,0.005803,0.118504
37.733037,-0.053296,-0.070553,-0.003665
37.833037,-0.157140,0.139579,-0.103844
37.933037,0.469589,-0.144465,-0.044592
38.033037,-0.601226,0.761421,-0.237620
38.133037,0.691326,-0.046119,-0.049479
38.233037,0.828156,-0.388804,0.144771
38.333037,-0.718509,-0.024739,0.218683
38.433037,-0.512654,0.021074,0.279768
38.533037,0.405450,-0.028404,0.337188
38.633037,-1.238493,0.029015,0.246171
38.733037,-0.424692,0.184170,-0.145382
38.833037,-1.012937,-0.341769,0.232122
38.933037,-0.067346,-0.269078,0.218072
39.033037,0.706598,-0.018020,0.198525
39.133037,-0.163249,0.660631,0.186919
39.233037,1.264301,-0.035124,0.021380
39.333037,-0.858393,0.503644,-0.133165
39.433037,1.071273,0.236092,-0.447751
39.533037,-0.306798,-0.291069,-0.287098
39.633037,0.377351,0.096208,0.166150
39.733037,-0.143702,-0.404075,0.390331
39.833037,-0.355055,-0.059558,-0.125224
39.933037,-0.787535,-0.082770,0.123391
40.033037,-0.213338,-0.321000,0.214407
40.133037,0.506851,0.451722,0.009163
40.233037,-0.548694,0.123697,0.042759
40.333037,-0.107662,0.247699,0.091016
40.433037,-0.052075,0.080937,0.074523
40.533037,-0.829683,-0.018631,0.062917
40.633037,0.251516,-0.022296,-0.138662
40.733037,-0.403923,0.345434,-0.433091
40.833037,-0.143091,-0.057114,-0.215018
40.933037,-0.271980,-0.073607,-0.233344
41.033037,0.980257,0.220210,0.240674
41.133037,-1.036150,-0.200663,0.153323
41.233037,0.704765,-0.251974,-0.142327
41.333037,0.463480,-0.091933,0.141106
41.433037,-0.481500,-0.297177,0.268773
41.533037,0.723090,-0.984991,0.214407
41.633037,-0.050242,0.055282,0.160653
41.733037,0.121406,-0.070553,0.228457
41.833037,-0.502880,0.005192,0.166150
41.933037,-0.502880,0.171343,-0.017104
42.033037,0.928946,0.418736,-0.579083
42.133037,-0.597561,0.347878,-0.491732
42.233037,-0.566408,0.306340,-0.808762
42.333037,0.512959,0.120031,-0.486845
42.433037,1.763363,-0.958725,-0.242506
42.533037,0.363301,0.050395,-0.343907
42.633037,1.035844,-0.455387,-0.153323
42.733037,-0.832738,-0.130416,-0.184476
42.833037,-1.350278,-0.090711,0.119115
42.933037,-1.402200,0.058336,0.334133
43.033037,1.024849,0.438894,-0.016493
43.133037,-1.147324,-0.140189,0.100179
43.233037,-0.394149,0.402243,0.027488
43.333037,0.853812,0.036956,-0.219294
43.433037,0.938109,0.031459,-0.430647
43.533037,-2.283653,-0.126751,-0.492343
43.633037,0.209979,-0.341158,-0.357346
43.733037,0.974760,0.322222,-0.029932
43.833037,-0.810136,0.153628,-0.134386
43.933037,-1.294080,0.101706,0.220516
44.033037,0.154392,-0.093154,0.111785
44.133037,0.865418,-0.035124,0.122780
44.233037,1.487260,0.143244,-0.123391
44.333037,-0.695908,0.261137,-0.039705
44.433037,-0.097888,0.228762,-0.164318
44.533037,-0.863891,0.008857,-0.245561
44.633037,-0.494328,-1.110215,-0.094070
44.733037,0.514181,-0.383918,0.139273
44.833037,-0.502269,-0.302064,0.367119
44.933037,0.157446,-0.448056,0.320084
45.033037,0.324818,0.231206,-0.116672
45.133037,0.346809,-0.184170,-0.123391
45.233037,0.087809,-0.295956,0.342685
45.333037,-0.214560,-0.389415,0.633449
45.433037,-0.457066,0.175008,0.067193
45.533037,0.158057,0.885423,-0.241896
45.633037,0.640626,0.536018,-0.460579
45.733037,0.750579,0.097430,-0.187530
45.833037,0.472643,0.173786,-0.125224
45.933037,0.463480,-0.878704,0.062306
46.033037,0.519678,-0.099263,0.235787
46.133037,-0.339173,-0.070553,0.237620
46.233037,0.205703,0.120031,0.094070
46.333037,0.380405,0.525023,0.058641
46.433037,-0.722785,0.180505,0.266329
46.533037,0.356582,0.129194,-0.105066
46.633037,-0.566408,0.649025,-0.265719
46.733037,0.565492,0.011301,-0.107509
46.833037,-0.030084,0.284960,0.257167
46.933037,0.036498,0.401021,0.260221
47.033037,-0.054518,0.437061,-0.460579
47.133037,0.009010,0.196387,-0.384223
47.233037,-0.148589,-0.640473,0.312754
47.333037,-0.041079,-0.352153,0.312143
47.433037,-0.205397,0.032680,-0.007941
47.533037,-0.146756,-0.338715,0.081854
47.633037,1.537350,0.523802,0.176535
47.733037,0.817161,0.215324,-0.034207
47.833037,0.150727,0.253807,-0.252891
47.933037,-0.856561,-0.108425,0.018325
48.033037,-0.592064,-0.183560,0.177757
48.133037,0.728588,-0.079716,0.037262
48.233037,0.625355,0.051617,-0.096514
48.333037,0.028557,-0.085213,0.070247
48.433037,-0.816855,0.036956,0.166761
48.533037,0.552053,0.201885,0.109953
48.633037,0.740805,0.044286,-0.159431
48.733037,-1.504211,0.315503,-0.166150
48.833037,0.095750,-0.099874,-0.295039
48.933037,1.672958,0.371090,0.075745
49.033037,-0.184629,0.294123,0.059863
49.133037,-0.967124,0.200663,0.097736
49.233037,-0.422859,0.072996,0.011606
49.333037,-0.466229,0.167067,0.139273
49.433037,0.041385,-0.235482,0.122780
49.533037,0.377962,0.286182,-0.250447
49.633037,0.252127,0.131027,-0.193639
49.733037,0.223417,-0.372922,0.098346
49.833037,-1.100899,0.167678,0.143549
49.933037,0.299162,-0.349099,-0.021991
50.033037,-0.097888,0.036956,-0.097736
50.133037,-1.209172,-0.068109,0.113007
50.233037,1.278351,0.180505,0.369563
50.333037,0.466535,0.446835,-0.160653
50.433037,0.412169,0.284349,-0.265719
50.533037,-0.375213,0.118199,-0.080021
50.633037,0.209979,-0.137135,0.211964
50.733037,-0.342838,-0.051006,0.000611
50.833037,0.063375,0.346656,-0.326192
50.933037,-0.301911,-0.360094,-0.213797
51.033037,0.018784,-0.363760,0.140495
51.133037,-0.075287,-0.201274,0.251669
51.233037,-0.216393,-0.054671,0.057420
51.333037,-0.031917,-0.029015,0.139273
51.433037,-1.003164,0.154850,0.039094
51.533037,-0.884660,0.211659,-0.158209
51.633037,-0.043523,-0.079716,-0.192417
51.733037,-1.169925,-0.288625,0.428204
51.833037,1.349209,0.152406,0.245561
51.933037,0.836097,0.347878,0.029321
52.033037,0.947271,-0.905581,-0.169816
52.133037,0.009010,0.604433,-0.189363
52.233037,0.994307,0.311838,-0.436145
52.333037,-0.589620,-0.539684,0.226624
52.433037,-0.298246,-0.074218,0.479515
52.533037,0.260679,-0.431564,0.331079
52.633037,0.438436,-0.248309,-0.262664
52.733037,0.248462,-0.012522,-0.132554
52.833037,0.026725,0.025961,-0.067193
52.933037,-0.088726,0.609931,-0.351237
53.033037,-0.632380,0.032069,-0.315197
53.133037,0.688272,-0.225708,-0.060474
53.233037,-0.389262,-0.615429,0.348183
53.333037,-0.647040,0.543349,0.295650
53.433037,0.742638,0.608709,-0.052533
53.533037,0.385292,0.215324,-0.072691
53.633037,-0.301300,0.046730,0.046424
53.733037,1.099983,0.219600,-0.039705
53.833037,0.536782,0.158515,-0.016493
53.933037,-0.105829,-0.030237,0.114839
54.033037,0.256403,-0.336271,0.222348
54.133037,0.534949,-0.118810,0.274270
54.233037,-0.566408,0.024739,-0.204634
54.333037,-0.074676,0.412627,0.023823
54.433037,-0.268926,-0.382085,0.137441
54.533037,1.057224,0.281295,-0.461801
54.633037,-0.092391,0.041232,-0.408657
54.733037,0.038331,1.551857,-1.050810
54.833037,0.059710,-0.291680,0.005498
54.933037,-1.504822,0.046119,0.643222
55.033037,-0.880994,-0.175008,0.922379
55.133037,2.179350,1.620883,-0.639557
55.233037,-0.631158,1.274533,-0.725687
55.333037,-0.535255,-0.072385,-0.023823
55.433037,-1.170536,-0.530521,0.234565
55.533037,0.105524,-0.160347,-0.263886
55.633037,-0.703238,0.736376,-0.144160
55.733037,1.046229,0.109647,-0.457525
55.833037,-0.662922,-0.050395,0.040316
55.933037,-0.934138,-0.937956,0.306645
56.033037,-0.526703,0.072385,0.485624
56.133037,-0.039858,-0.880536,0.902832
56.233037,0.109189,0.374755,-0.217462
56.333037,0.016951,0.229984,-0.459968
56.433037,-0.566408,0.330163,-0.286487
56.533037,-0.060627,0.349099,-0.377504
56.633037,-0.637877,0.540294,-0.643222
56.733037,0.933222,0.815176,-1.103954
56.833037,0.373075,0.443170,-1.052643
56.933037,0.848314,0.398578,-0.930320
57.033037,-4.264019,0.220210,-0.836861
57.133037,1.063943,0.225708,-0.563812
57.233037,3.878727,0.093154,-1.472295
57.333037,-0.637266,0.449278,-1.053253
57.433037,0.782954,-0.054671,-0.972011
57.533037,1.443279,0.295956,-0.554038
57.633037,-0.635434,0.751648,-0.716524
57.733037,-0.352001,0.245866,-0.756840
57.833037,0.362691,0.079716,-0.628562
57.933037,0.145229,0.066888,-0.676819
58.033037,1.705333,0.220821,-0.494786
58.133037,-0.194402,0.139579,-0.437977
58.233037,2.517149,-0.284960,-0.515555
58.333037,-0.932306,-0.443170,-0.530826
58.433037,0.162333,0.094987,-1.104565
58.533037,0.376129,-0.198220,-1.191916
58.633037,0.242354,-0.334439,-0.459357
58.733037,0.975981,-0.319168,-0.098957
58.833037,0.397509,-0.295345,0.207077
58.933037,0.359636,-0.485318,0.120948
59.033037,0.189821,-0.031459,0.118504
59.133037,0.778067,-0.349710,0.584581
59.233037,-0.573127,-0.267857,0.152101
59.333037,-0.505323,0.105982,-0.039094
59.433037,0.779899,-0.083381,0.050700
59.533037,-0.688578,-0.221432,0.216851
59.633037,0.339478,0.072385,-0.298704
59.733037,-0.508988,-0.385750,0.264497
59.833037,0.475697,-0.159126,0.034207
59.933037,0.442712,-0.484707,-0.224181
60.033037,0.211811,-0.024739,-0.059252
60.133037,0.533117,0.195777,-0.107509
60.233037,-0.184018,0.312448,-0.135608
60.333037,-0.421637,-0.222654,0.042148
60.433037,0.106746,-0.131027,0.363454
60.533037,0.564270,-0.142633,0.611458
60.633037,0.115908,0.016187,0.390331
60.733037,-0.584123,0.262359,-0.106898
60.833037,-0.286640,-0.506087,-0.079410
60.933037,0.107967,-0.268467,0.364676
61.033037,0.319320,-0.142633,0.131943
61.133037,-0.114992,0.439505,-0.222348
61.233037,-0.227388,0.139579,-0.376893
61.333037,-0.642153,0.052227,-0.094681
61.433037,-0.272591,-0.101706,-0.002443
61.533037,0.071316,-0.239758,0.260221
61.633037,0.362080,-0.013133,0.137441
61.733037,-0.177298,0.542127,0.024434
61.833037,-0.133317,-0.203718,0.087962
61.933037,-0.123544,0.054060,-0.095292
62.033037,0.007177,0.157293,-0.108120
62.133037,0.194708,0.584886,0.000611
62.233037,0.429884,0.304507,-0.020769
62.333037,-0.126598,-0.204328,0.304813
62.433037,0.024892,-0.127362,0.245561
62.533037,-0.021532,0.003971,0.100179
62.633037,0.663227,0.385750,0.076356
62.733037,0.118963,0.245866,0.018325
62.833037,-0.072844,0.187836,-0.004887
62.933037,0.014508,0.267246,-0.205245
63.033037,-0.145534,-0.178062,-0.058030
63.133037,0.565492,0.326498,0.018936
63.233037,-0.477224,-0.043065,-0.082464
63.333037,0.026725,0.236092,-0.233955
63.433037,-0.223723,-0.169510,0.115450
63.533037,-0.400869,-0.424233,0.122780
63.633037,0.299162,-0.054671,-0.113007
63.733037,-0.019700,-0.005192,-0.309089
63.833037,-0.177909,0.055893,-0.255945
63.933037,-0.450347,-0.240979,0.269994
64.033037,-0.267704,0.007025,-0.073302
64.133037,-0.072844,0.164623,-0.226624
64.233037,0.052991,-0.138968,0.006719
64.333037,0.616803,0.435840,0.228457
64.433037,-0.330621,0.282517,-0.081243
64.533037,0.082923,0.025350,-0.008552
64.633037,0.100637,-0.131638,0.112396
64.733037,0.070095,-0.028404,0.088573
64.833037,0.120795,0.727214,-0.245561
64.933037,0.048104,0.211048,-0.195471
65.033037,-0.139426,0.035124,-0.160042
65.133037,-0.222501,0.065055,-0.084297
65.233037,0.549610,-0.085213,-0.050089
65.333037,0.291832,0.187836,-0.026266
65.433037,-0.205397,0.047952,0.127667
65.533037,-0.023976,-0.089489,0.167983
65.633037,0.015729,0.265413,-0.026877
65.733037,-0.414918,-0.247699,-0.174702
65.833037,-0.223112,-0.123697,-0.100790
65.933037,-0.570684,-0.218989,0.002443
66.033037,0.569768,-0.080326,-0.168594
66.133037,-0.588399,0.013133,0.111174
66.233037,-0.756382,-0.322222,-0.011606
66.333037,0.390179,-0.141411,0.178978
66.433037,0.398120,-0.091322,0.350015
66.533037,0.605808,0.696060,0.065361
66.633037,0.229526,0.349710,-0.091627
66.733037,-0.330010,0.280073,-0.001833
66.833037,0.294276,0.324054,-0.106287
66.933037,0.077425,-0.062001,-0.081854
67.033037,-0.716677,-0.640473,0.241285
67.133037,0.169052,-0.139579,0.092849
67.233037,0.031611,-0.142022,0.092849
67.333037,0.348030,-0.075440,0.014049
67.433037,-0.248768,0.215324,-0.020158
67.533037,-0.399036,-0.162791,-0.195471
67.633037,-0.436298,-0.063834,0.105677
67.733037,0.541669,-0.269078,0.337188
67.833037,0.412169,0.465160,0.229679
67.933037,-0.017867,0.518915,-0.154544
68.033037,0.020616,0.105371,0.072080
68.133037,-0.130263,0.382085,-0.034818
68.233037,-0.362996,-0.110258,-0.020769
68.333037,-0.141258,-0.706445,0.340853
68.433037,0.406672,0.223265,-0.056809
68.533037,-0.464397,0.079716,-0.295039
68.633037,-0.215782,-0.149963,-0.186919
68.733037,0.258847,0.354597,-0.252280
68.833037,-1.094791,-0.168899,-0.131943
68.933037,0.021227,-0.273965,0.235787
69.033037,0.430495,-0.249531,0.301148
69.133037,1.134802,0.534797,-0.061085
69.233037,-0.187072,0.172564,-0.124613
69.333037,-0.146145,0.098652,0.092238
69.433037,0.247240,0.082159,0.126445
69.533037,-0.135761,-0.123697,0.070858
69.633037,0.012064,-0.620315,0.070247
69.733037,-0.117435,-0.325887,0.192417
69.833037,-0.102164,-0.266024,0.204634
69.933037,0.478752,-0.013133,-0.017715
70.033037,0.218531,0.609320,-0.266329
70.133037,-0.225555,-0.102928,0.040316
70.233037,0.296108,-0.014966,-0.065972
70.333037,0.020005,0.116366,-0.142327
70.433037,-0.004429,-0.600157,-0.063528
70.533037,0.467145,0.010079,0.100790
70.633037,-0.068568,0.151185,0.165540
70.733037,0.263733,-0.014966,0.088573
70.833037,-0.248157,0.346656,-0.045203
70.933037,0.158668,0.588551,-0.232733
71.033037,0.128125,-0.097430,0.070247
71.133037,0.227082,-0.093154,0.062306
71.233037,0.089031,-0.102928,-0.108120
71.333037,-0.177298,-0.430953,-0.010995
71.433037,0.038942,-0.017409,0.177757
71.533037,-0.096667,0.013744,0.061696
71.633037,0.197151,0.043676,-0.155766
71.733037,-0.595729,-0.168288,0.108731
71.833037,-0.357498,-0.204328,0.207688
71.933037,-0.217003,-0.036956,0.069637
72.033037,0.228915,0.021685,-0.133776
72.133037,0.842817,0.791353,-0.260221
72.233037,-0.253654,0.190279,-0.157599
72.333037,-0.414918,-0.016798,-0.265719
72.433037,0.165998,-0.094376,-0.171037
72.533037,0.172106,-0.408962,0.030542
72.633037,0.442712,0.202496,0.233344
72.733037,0.084755,0.072385,0.176535
72.833037,-0.105218,0.208604,-0.257167
72.933037,-0.546861,0.237314,-0.353681
73.033037,-0.056351,-0.302675,-0.028710
73.133037,0.253349,0.086435,0.094070
73.233037,0.084755,-0.104760,0.042148
73.333037,0.198373,-0.130416,-0.037262
73.433037,-0.226166,-0.057725,0.241285
73.533037,-0.156530,0.106593,0.160042
73.633037,-0.060627,-0.128583,0.180200
73.733037,-0.196846,0.087046,0.174702
73.833037,-0.003207,0.044897,-0.060474
73.933037,0.271063,0.821895,-0.404381
74.033037,0.363301,0.135303,-0.510668
74.133037,-0.441184,-0.073607,-0.353681
74.233037,0.387124,-0.158515,0.015271
74.333037,-0.494328,-0.727825,0.378725
74.433037,-0.143091,-0.054671,0.356735
74.533037,-0.694075,0.127362,0.037262
74.633037,0.172717,-0.003360,-0.154544
74.733037,0.775623,0.742485,-0.414765
74.833037,-0.243270,0.154850,-0.308478
74.933037,-0.425302,-0.248920,0.139273
75.033037,0.125682,-0.423623,0.129500
75.133037,-0.648262,-0.411406,0.246171
75.233037,0.186156,-0.795018,0.456914
75.333037,-0.108884,0.250142,0.310921
75.433037,-0.409420,0.196998,-0.081243
75.533037,0.671779,0.013744,-0.145382
75.633037,-0.218225,0.642917,-0.077578
75.733037,0.199594,0.072385,0.045814
75.833037,0.034666,-0.036345,-0.116672
75.933037,-0.008094,-0.104149,-0.037262
76.033037,0.388346,-0.200052,0.108731
76.133037,-0.516930,-0.168288,-0.009163
76.233037,-0.200511,-0.005803,-0.127056
76.333037,-0.367883,0.168288,0.111174
76.433037,-0.471116,-0.931848,0.343296
76.533037,0.073760,0.137746,-0.083075
76.633037,0.192264,0.269689,-0.203412
76.733037,-0.308631,0.048562,0.158209
76.833037,0.153781,0.406519,0.089184
76.933037,0.555107,0.297788,-0.010384
77.033037,-0.130874,0.116366,0.105066
77.133037,-0.135150,0.217156,-0.014049
77.233037,-0.044745,0.598325,-0.069026
77.333037,0.017562,0.264802,-0.064750
77.433037,-0.114992,-0.132859,0.108120
77.533037,0.043217,0.259305,-0.029321
77.633037,-0.417361,0.164012,0.025656
77.733037,-1.100899,0.093154,0.075134
77.833037,0.460426,0.104760,-0.085519
77.933037,-0.244492,0.248920,-0.017715
78.033037,-0.201732,-0.130416,0.202801
78.133037,-0.235329,-0.447446,0.094681
78.233037,-0.714233,-0.030237,-0.153323
78.333037,0.503185,0.119421,-0.042148
78.433037,-0.424692,-0.223876,0.008552
78.533037,-0.066124,-0.454776,0.001222
78.633037,-0.303133,-0.113923,-0.042148
78.733037,-0.468062,-0.209826,0.189363
78.833037,-0.754549,-0.011301,0.073913
78.933037,-1.317903,-0.711332,0.353070
79.033037,-0.935360,-0.065666,0.134386
79.133037,0.420110,0.366814,-0.411100
79.233037,0.560605,0.036345,-0.415376
79.333037,0.240521,-0.202496,-0.323749
79.433037,-0.324513,-0.169510,-0.039705
79.533037,0.002902,-0.379642,0.135608
79.633037,-0.079563,-0.164012,0.149047
79.733037,0.257625,0.358873,-0.274270
79.833037,0.059710,0.239758,0.080632
79.933037,-0.596340,-0.253807,0.061085
80.033037,-0.303133,0.007025,0.238230
80.133037,0.997972,0.537851,-0.001833
80.233037,0.051769,0.241590,-0.164929
80.333037,0.684607,0.003971,-0.210131
80.433037,0.054824,-0.060168,-0.058030
80.533037,0.199594,0.220821,0.032375
80.633037,-0.204176,0.028404,0.135608
80.733037,0.370021,-0.337493,0.252280
80.833037,0.052991,0.064444,0.163096
80.933037,-0.826629,0.386361,-0.088573
81.033037,0.168441,0.085213,0.059863
81.133037,-0.439352,0.047952,-0.114228
81.233037,-0.020311,0.498146,-0.325582
81.333037,-0.596340,-0.040010,-0.089184
81.433037,-0.011148,-0.347267,0.216851
81.533037,-0.237161,-0.193944,0.241896
81.633037,0.953991,0.208604,0.165540
81.733037,-0.445460,-0.209215,0.616345
81.833037,0.052380,0.264191,-0.131943
81.933037,-0.546250,0.248309,-0.013439
82.033037,0.150116,-0.084602,-0.547319
82.133037,0.770737,0.427898,-0.315808
82.233037,-0.125376,-0.293512,0.016493
82.333037,-1.231163,-0.524412,0.649942
82.433037,0.334592,-0.098041,0.338409
82.533037,0.056656,0.169510,-0.029932
82.633037,0.008399,0.448056,-0.022601
82.733037,0.169663,0.419957,-0.472185
82.833037,-0.462564,0.612374,-0.191195
82.933037,0.283891,-0.178673,0.121559
83.033037,-0.106440,-0.101095,-0.010995
83.133037,-0.762490,0.000305,0.000000
83.233037,0.585039,0.126751,-0.001222
83.333037,-0.982395,-0.324054,0.357346
83.433037,-0.157751,-0.322833,0.404381
83.533037,-1.025765,0.225097,0.434312
83.633037,-0.240827,-0.297788,-0.113007
83.733037,1.220320,0.443781,-0.052533
83.833037,0.183101,0.142022,-0.265108
83.933037,2.237992,0.394302,-0.621843
84.033037,-0.250600,-0.316724,-0.183254
84.133037,-1.041036,-0.875650,0.762337
84.233037,0.070095,-0.268467,0.315197
84.333037,0.246019,0.446835,-0.343296
84.433037,0.283280,0.411406,-0.288931
84.533037,0.063375,-0.241590,-0.042759
84.633037,-1.061805,-0.556176,0.124002
84.733037,-1.414417,-0.409573,0.188752
84.833037,0.072538,-0.498146,0.076356
84.933037,0.480584,0.399800,0.062306
85.033037,0.424386,0.323444,-0.026266
85.133037,-0.837624,0.247699,-0.593133
85.233037,1.537961,0.083991,-0.318862
85.333037,-0.447904,-0.314892,0.299315
85.433037,1.140299,0.313059,0.088573
85.533037,0.386514,-0.329552,0.243728
85.633037,0.473254,0.415682,-0.182032
85.733037,0.593591,0.611764,-0.727519
85.833037,-0.156530,-0.848772,0.088573
85.933037,0.483638,-0.195166,-0.089795
86.033037,0.646735,0.227541,-0.111174
86.133037,1.293622,-0.645360,-0.219905
86.233037,0.575265,-0.132859,-0.045814
86.333037,0.693159,-0.242812,-0.005498
86.433037,0.255181,-0.414460,0.159431
86.533037,-0.060016,-0.164012,0.266329
86.633037,-0.258541,0.050395,0.024434
86.733037,0.534949,0.106593,-0.353681
86.833037,-0.054518,-0.032069,-0.353681
86.933037,-0.378267,0.164012,-0.219294
87.033037,0.259457,-0.281295,-0.007330
87.133037,-0.197456,-0.074218,0.274881
87.233037,-0.389262,0.069942,0.310310
87.333037,0.259457,0.288625,0.335355
87.433037,-0.021532,-0.149352,0.097125
87.533037,0.031000,0.197609,-0.284655
87.633037,0.094529,0.562285,-0.018325
87.733037,0.760352,0.046119,-0.258999
87.833037,0.428051,-0.215324,-0.429426
87.933037,-0.876108,0.578778,0.120337
88.033037,0.214866,-0.331385,0.516777
88.133037,1.183058,-0.017409,0.347572
88.233037,-0.819910,0.933069,-0.214407
88.333037,0.226472,0.608709,-0.512501
88.433037,0.081701,-0.071164,0.105066
88.533037,-0.230442,0.073607,0.194249
88.633037,0.354750,0.349099,-0.266329
88.733037,-0.179742,0.070553,-0.084297
88.833037,-0.824186,-0.328330,0.056809
88.933037,0.120184,-0.107204,0.160042
89.033037,0.038331,-0.318557,0.021991
89.133037,0.429884,-0.336882,0.058030
89.233037,0.365134,-0.896418,0.330468
89.333037,-0.827851,0.069942,0.110563
89.433037,-0.344060,0.070553,-0.005498
89.533037,-0.340395,-0.413238,-0.080021
89.633037,-0.364218,0.000305,-0.133776
89.733037,-0.053907,0.012522,-0.043981
89.833037,-0.725839,-0.132859,0.049479
89.933037,0.514181,-0.262970,0.174702
90.033037,-0.013591,-0.154850,-0.091627
90.133037,-0.126598,1.030194,-0.190584
90.233037,0.421332,-0.019242,-0.062306
90.333037,-0.595118,0.110869,0.049479
90.433037,0.305271,-0.483486,0.202801
90.533037,-0.052075,0.090100,0.045814
90.633037,-0.221279,0.390637,-0.096514
90.733037,0.837930,-0.272132,-0.202190
90.833037,0.743248,-0.182949,0.070247
90.933037,0.473254,-0.196998,0.120337
91.033037,-1.490162,0.788298,0.157599
91.133037,0.115297,0.306951,-0.175313
91.233037,0.642459,-0.148741,-0.087962
91.333037,-0.247546,-0.025961,-0.042759
91.433037,-0.046577,-0.037567,0.136219
91.533037,-0.506545,0.193333,-0.294428
91.633037,-0.210284,-0.136524,-0.043370
91.733037,-0.050242,-0.291680,0.177757
91.833037,-0.403923,-0.075440,0.175924
91.933037,0.805555,-0.002138,-0.007941
92.033037,-0.053907,0.682011,0.124613
92.133037,-0.093612,-0.002749,-0.149047
92.233037,-1.374712,0.352764,-0.229679
92.333037,0.464091,-0.776692,0.139884
92.433037,0.087809,-0.205550,0.023212
92.533037,-0.023365,-0.009468,0.104455
92.633037,0.712095,0.101095,0.124613
92.733037,-1.092348,-0.156071,0.098957
92.833037,1.080436,-0.384528,-0.168594
92.933037,-0.728283,-0.127362,0.066582
93.033037,-0.763101,0.024128,0.029932
93.133037,0.460426,-0.130416,-0.035429
93.233037,0.836097,-0.421790,-0.052533
93.333037,-1.601336,0.025961,0.186308
93.433037,0.746303,-0.459663,0.100179
93.533037,0.514792,-0.119421,0.114839
93.633037,0.240521,0.018020,0.241896
93.733037,0.130569,0.033291,0.233955
93.833037,0.608862,0.479821,0.124002
93.933037,-0.405144,0.677735,-0.122169
94.033037,1.181837,0.328330,-0.476461
94.133037,-0.129041,0.140189,-0.159431
94.233037,-1.070968,-0.554955,0.317030
94.333037,-0.204787,-0.501811,0.127056
94.433037,-0.270147,-0.137746,-0.291985
94.533037,-0.413696,-0.198220,0.148436
94.633037,0.985144,-0.409573,0.389110
94.733037,-1.297745,-0.220210,0.092238
94.833037,-0.637266,0.013744,0.067804
94.933037,0.896571,0.176840,0.061696
95.033037,0.007788,-0.062001,-0.098957
95.133037,-0.937192,0.175008,0.029932
95.233037,0.290611,0.110869,0.182643
95.333037,-1.336839,1.101052,-0.046424
95.433037,0.476308,0.247088,0.023212
95.533037,1.501921,0.322222,0.223570
95.633037,-0.702627,0.093154,0.347572
95.733037,-0.745997,0.178673,0.172259
95.833037,0.354139,0.068720,-0.190584
95.933037,-0.003207,-0.229373,0.015271
96.033037,0.151337,-0.485929,0.067193
96.133037,-0.048410,-0.445002,0.115450
96.233037,-0.606113,0.157293,0.138051
96.333037,9.442477,-3.394325,1.413501
96.433037,-9.809443,-0.864654,0.382390
96.533037,-1.138161,0.098652,-0.227846
96.633037,-0.512654,-0.062001,0.109342
96.733037,2.264258,0.330774,-0.068415
96.833037,-0.129041,0.062001,-0.353681
96.933037,-1.243380,-1.041800,0.212575
97.033037,-0.141258,-1.254986,0.653607
97.133037,0.715760,-0.537851,0.500895
97.233037,0.716982,0.612985,-0.137441
97.333037,-1.254375,-0.197609,-0.285877
97.433037,0.352306,-0.374755,0.006719
97.533037,0.618636,-0.025350,0.116061
97.633037,-0.339173,-0.094376,-0.109342
97.733037,0.618636,0.613596,-0.219294
97.833037,0.626577,0.087657,-0.044592
97.933037,0.464702,-0.153628,0.339020
98.033037,0.382849,-0.288014,0.351848
98.133037,-0.581068,0.434007,0.051922
98.233037,0.264344,-0.264191,-0.086129
98.333037,0.239910,0.301453,-0.213797
98.433037,-0.058183,-0.144465,-0.270605
98.533037,-0.260984,-0.550068,0.200358
98.633037,0.313823,-0.281906,0.459357
98.733037,-0.058183,-0.284960,0.291985
98.833037,-0.512654,0.430953,0.363454
98.933037,-0.001985,0.553733,0.154544
99.033037,-0.074676,-0.030848,0.039705
99.133037,-0.646429,0.100484,0.005498
99.233037,0.304660,-1.201231,0.020158
99.333037,0.110411,-0.082770,0.228457
99.433037,0.705987,0.177451,-0.208910
99.533037,-0.425302,0.281906,-0.178367
99.633037,-0.238994,0.642917,-0.120337
99.733037,0.439657,0.055282,0.054976
99.833037,-0.624439,-0.029015,0.016493
99.933037,-0.524871,-0.536018,0.164318
100.033037,-0.305576,-0.290458,0.288320
100.133037,0.222807,-0.226930,0.078799
100.233037,0.104302,0.095598,0.173481
100.333037,0.092085,-0.920852,0.054365
100.433037,0.086588,-0.459663,0.249837
100.533037,-0.603059,0.355208,-0.308478
100.633037,0.072538,0.006414,-0.171648
100.733037,0.644902,0.452943,0.243728
100.833037,0.208146,-0.050395,0.149658
100.933037,0.834875,0.137135,-0.105677
101.033037,-0.593285,-0.266024,0.133776
101.133037,-0.328789,-0.986824,0.036651
101.233037,-0.124766,0.067499,-0.095292
101.333037,0.054824,0.090100,-0.147214
101.433037,-0.727061,0.262970,0.378725
101.533037,-0.483944,0.360705,0.263275
101.633037,0.159278,0.369257,-0.183865
101.733037,-0.322069,0.281906,-0.118504
101.833037,0.689494,-0.082770,0.037262
101.933037,-0.065513,0.018020,0.149658
102.033037,0.156224,0.062001,0.113007
102.133037,-1.183364,-0.310616,0.168594
102.233037,-0.434465,-0.868930,0.178978
102.333037,-0.066124,-0.294123,-0.138662
102.433037,-0.107051,0.101706,-0.323749
102.533037,0.237467,-0.085824,-0.021380
102.633037,0.511737,0.573280,0.029932
102.733037,-0.673917,0.279463,-0.109342
102.833037,0.122017,-0.119421,0.194249
102.933037,-0.039858,-0.203718,0.120948
103.033037,-0.103386,0.084602,-0.093460
103.133037,-0.829072,0.125529,0.002443
103.233037,0.698657,0.020463,-0.237009
103.333037,-0.351390,-0.104149,-0.217462
103.433037,-0.963459,-1.051574,0.304813
103.533037,0.589926,-0.438283,-0.007941
103.633037,-0.174244,0.022907,-0.025656
103.733037,-0.534033,0.044286,0.388499
103.833037,0.014508,0.154239,0.304813
103.933037,-0.032528,0.005803,-0.029321
104.033037,-0.600005,0.101095,-0.089795
104.133037,0.542280,0.240368,-0.104455
104.233037,0.405450,0.211048,0.054365
104.333037,-1.470615,-0.546403,0.610847
104.433037,0.972316,0.013133,0.230289
104.533037,-0.932916,-0.321000,0.138662
104.633037,0.985144,-0.033902,-0.323138
104.733037,-0.352612,-0.057114,-0.216240
104.833037,1.442669,-0.323444,0.106898
104.933037,-0.196235,-0.024128,0.160042
105.033037,0.236856,-0.272743,0.477072
105.133037,-0.383154,0.044897,0.326803
105.233037,-0.044134,-0.161569,0.410489
105.333037,0.518457,0.054671,-0.124613
105.433037,-0.798530,0.099263,-0.304813
105.533037,0.259457,-0.207993,0.015882
105.633037,0.019394,-0.978883,0.491121
105.733037,-0.193791,-0.204328,0.412322
105.833037,-0.322680,-0.089489,0.348794
105.933037,0.119573,0.063223,0.309700
106.033037,0.120184,-0.118810,-0.119115
106.133037,0.048104,0.041843,-0.120948
106.233037,-0.099110,0.331385,-0.047646
106.333037,0.671168,0.235482,0.016493
106.433037,0.313823,0.083991,-0.037262
106.533037,-0.052075,0.255029,-0.009774
106.633037,0.068873,0.158515,-0.574196
106.733037,-0.354444,0.059558,-0.563812
106.833037,-0.386819,-0.143244,-0.048257
106.933037,0.753022,-0.407741,0.553428
107.033037,0.641848,-0.992932,0.572975
107.133037,0.585039,-0.283739,0.478293
107.233037,-0.215782,0.207383,-0.140495
107.333037,-0.352612,-0.035735,-0.254723
107.433037,-0.133317,-0.368646,0.075745
107.533037,0.306493,-0.182338,-0.022601
107.633037,-0.459510,0.047952,0.013439
107.733037,0.497688,0.675292,-0.133776
107.833037,-1.315460,-0.057725,-0.218072
107.933037,1.806123,-0.352153,-0.014660
108.033037,4.415815,-0.893975,-0.224792
108.133037,0.119573,-0.246477,0.280990
108.233037,-0.312296,-0.386361,0.127056
108.333037,0.166609,0.838388,-0.156988
108.433037,0.032833,0.652690,-0.073913
108.533037,-0.131485,-0.122475,-0.004887
108.633037,-0.202954,0.160347,-0.235176
108.733037,-0.372770,-0.333217,-0.079410
108.833037,0.279004,-0.134692,0.180811
108.933037,0.092085,-0.115756,-0.199747
109.033037,-0.384986,0.699115,-0.139884
109.133037,0.335202,0.019853,-0.287098
109.233037,-0.093612,0.175619,0.095903
109.333037,0.397509,-0.920852,0.096514
109.433037,-0.053907,-0.249531,0.015271
109.533037,-0.273201,0.122475,0.072691
109.633037,0.583206,0.508530,0.049479
109.733037,-0.252433,0.070553,0.130110
109.833037,-0.110716,-0.008857,0.051311
109.933037,-0.342838,0.485318,-0.204634
110.033037,0.081090,0.337493,-0.193028
110.133037,-0.108884,-0.058336,0.157599
110.233037,0.055434,-0.506087,0.393386
110.333037,0.121406,-0.396745,0.269384
110.433037,0.564881,0.108425,-0.012828
110.533037,-1.140604,0.747982,-0.225403
110.633037,-1.388150,0.032680,-0.408046
110.733037,1.169620,0.002749,0.003054
110.833037,0.969873,0.371090,-0.284655
110.933037,-1.133274,0.463328,-0.623064
111.033037,-0.047799,-0.161569,0.114228
111.133037,0.537393,-0.091933,-0.131332
111.233037,0.252127,0.554344,-0.363454
111.333037,-1.442516,-0.352764,0.219905
111.433037,1.047450,-0.782801,0.217462
111.533037,-0.320848,0.727214,0.077578
111.633037,0.257625,0.082770,-0.122169
111.733037,-0.506545,0.343602,-0.237009
111.833037,0.740805,-1.335007,0.151490
111.933037,0.558162,-0.193944,0.281601
112.033037,0.180047,-0.100484,0.144160
112.133037,0.236856,0.273965,0.012828
112.233037,-0.116825,0.049784,-0.002443
112.333037,0.032833,-0.005192,-0.105677
112.433037,0.087198,0.060779,0.119115
112.533037,0.371242,-0.073607,0.180200
112.633037,0.227082,0.168288,-0.193028
112.733037,0.297941,-0.190890,-0.068415
112.833037,-0.031917,-0.325276,-0.139273
112.933037,-0.042912,-0.125529,-0.082464
113.033037,0.340089,-0.183560,-0.144160
113.133037,0.935665,0.240979,0.191806
113.233037,-0.450347,0.032069,-0.021380
113.333037,0.187988,-0.146909,0.375671
113.433037,0.028557,-0.267246,0.086129
113.533037,0.390179,0.118810,-0.032375
113.633037,0.275950,-0.118199,-0.098346
113.733037,0.184323,0.076661,0.217462
113.833037,-0.059405,0.431564,-0.048868
113.933037,0.425608,0.102928,-0.025045
114.033037,-0.314128,0.181727,-0.024434
114.133037,0.162333,-0.000916,-0.111785
114.233037,-0.244492,-0.040621,-0.004276
114.333037,0.210590,-0.056503,-0.159431
114.433037,0.146451,-0.859157,0.032375
114.533037,0.835486,-0.212269,-0.037262
114.633037,-0.673306,-0.277019,-0.106898
114.733037,-0.981784,-0.113923,0.285266
114.833037,1.057224,-0.297788,0.097736
114.933037,0.479362,-0.036345,-0.236398
115.033037,-0.052686,-0.155461,0.131943
115.133037,-0.352612,1.119988,-0.007330
115.233037,-0.402701,0.162180,-0.093460
115.333037,0.462870,0.040010,-0.004887
115.433037,0.112243,0.918409,0.006719
115.533037,0.216087,0.441337,-0.078188
115.633037,0.403617,0.021074,0.240063
115.733037,0.098805,0.213491,0.067193
115.833037,-0.074065,0.858546,-0.337188
115.933037,0.356582,0.173786,-0.222348
116.033037,-0.774707,0.023518,0.160042
116.133037,0.144007,1.026529,-0.007330
116.233037,-0.366050,0.501811,-0.184476
116.333037,0.015118,0.016798,0.071469
116.433037,-0.123544,0.029626,0.073302
116.533037,0.428662,0.782190,-0.142938
116.633037,0.506851,0.167067,-0.207688
116.733037,-0.149199,0.096819,0.033597
116.833037,-0.044745,0.647804,0.120337
116.933037,0.155002,0.564728,-0.160653
117.033037,-0.069789,0.231206,-0.166150
117.133037,-0.014202,-0.030237,-0.183865
117.233037,-0.279921,0.482875,-0.013439
117.333037,-0.415529,-0.196998,0.114228
117.433037,-0.040469,-0.261748,0.289542
117.533037,-0.504102,-0.006414,0.309089
117.633037,0.318099,-0.367425,-0.059252
117.733037,-0.029473,0.181116,-0.486845
117.833037,0.047493,0.049784,-0.218072
117.933037,0.285724,0.084602,-0.199747
118.033037,-0.231053,0.079716,-0.145382
118.133037,0.322986,-0.197609,0.212575
118.233037,0.140342,-0.144465,0.258999
118.333037,-0.836403,0.384528,0.091627
118.433037,-0.159584,0.215324,-0.138051
118.533037,0.289389,0.105982,-0.012217
118.633037,-0.268926,-0.115756,0.083075
118.733037,-0.136983,-0.498146,0.340853
118.833037,-0.235940,-0.256861,0.010995
118.933037,-0.140648,0.261748,-0.155155
119.033037,-0.045355,0.926961,-0.249837
119.133037,-0.243270,0.262359,0.012828
119.233037,0.874581,0.054060,-0.188141
119.333037,-0.077730,-0.096208,-0.227846
119.433037,-0.603670,-0.799294,0.280379
119.533037,0.404228,-0.218378,0.014660
119.633037,0.323596,-0.085824,0.171037
119.733037,-0.153475,0.017409,0.273049
119.833037,0.485471,0.882369,0.078799
119.933037,-0.148589,0.330163,-0.289542
120.033037,0.092696,-0.021685,-0.104455
120.133037,-0.354444,-0.175008,-0.043981
120.233037,-0.527314,-0.525023,0.168594
120.333037,0.106746,0.081548,-0.071469
120.433037,0.247240,0.443170,-0.452027
120.533037,-0.290305,0.505476,-0.230900
120.633037,-0.111327,-0.069942,0.042759
120.733037,0.087198,-0.338104,0.417209
120.833037,0.105524,-0.285571,0.309700
120.933037,0.638794,-0.087046,-0.122169
121.033037,0.154392,-0.060168,-0.045203
121.133037,-0.209673,-0.078494,-0.059252
121.233037,-0.317793,0.126140,-0.282822
121.333037,-0.068568,-0.349099,-0.049479
121.433037,-0.238994,-0.078494,-0.133165
121.533037,2.060235,-0.751648,-0.090405
121.633037,-0.744776,-0.135303,0.261443
121.733037,0.435381,0.248920,0.272438
121.833037,0.005956,-0.157293,0.169205
121.933037,0.332759,-0.007636,-0.023212
122.033037,-0.223723,-0.261748,0.116061
122.133037,-0.403923,-0.756534,0.366508
122.233037,0.549610,-0.264802,0.237620
122.333037,0.092085,0.161569,-0.266940
122.433037,-1.294691,-0.378420,0.123391
122.533037,-0.389873,-0.483486,0.433091
122.633037,0.125682,-0.116977,0.064750
122.733037,-0.008094,-0.160347,0.156377
122.833037,-0.989725,-0.130416,0.444086
122.933037,0.344976,-0.269689,0.237620
123.033037,0.599088,0.128583,-0.463022
123.133037,0.319931,0.042454,-0.478904
123.233037,-3.943935,-0.609931,0.373228
123.333037,0.735307,-1.142590,0.513112
123.433037,-0.165081,-0.050395,0.102622
123.533037,-0.540753,0.375366,-0.208910
123.633037,0.082312,-0.123086,0.087962
123.733037,-0.782648,-0.369868,0.163096
123.833037,-0.105829,0.262359,-0.451416
123.933037,-0.367883,0.175619,-0.175924
124.033037,-0.124155,-0.280684,0.211353
124.133037,-0.136372,-0.630089,0.389721
124.233037,-0.984838,0.048562,-0.098346
124.333037,0.219752,0.094987,-0.072080
124.433037,-0.986060,-0.288625,0.190584
124.533037,-0.210895,-0.537851,0.213797
124.633037,-0.097277,-0.057114,-0.343296
124.733037,0.263733,0.256861,-0.166761
124.833037,-0.465007,-0.256250,0.123391
124.933037,-0.571906,-0.269689,0.331079
125.033037,0.104913,-0.335661,0.293818
125.133037,0.276561,0.152406,0.187530
125.233037,-0.185239,0.160347,0.076967
125.333037,-0.329399,-0.014355,0.004887
125.433037,-0.387430,0.052838,-0.183254
125.533037,0.247240,0.237925,-0.226624
125.633037,0.210590,0.422401,-0.104455
125.733037,-0.541974,0.504254,-0.360400
125.833037,-0.182796,-0.024739,-0.111174
125.933037,-0.136372,0.076050,-0.133165
126.033037,0.491579,0.599547,-0.003665
126.133037,-0.030084,0.223876,0.258999
126.233037,-0.081395,-0.142633,0.286487
126.333037,0.186767,0.076661,-0.023212
126.433037,1.176950,0.770584,0.126445
126.533037,-0.261595,0.653912,-0.095903
126.633037,-0.444850,0.240979,0.108120
126.733037,-0.440574,0.010690,-0.256556
126.833037,0.596645,-0.425455,-0.220516
126.933037,-0.265260,0.014966,-0.182032
127.033037,-0.155919,-0.215935,0.015882
127.133037,0.134845,-0.315503,0.374449
127.233037,0.185545,-0.759589,0.603517
127.333037,-0.369104,-0.019853,0.240674
127.433037,0.662617,-0.019853,0.164929
127.533037,0.362080,0.228762,-0.041538
127.633037,-0.219447,1.229330,-0.417209
127.733037,-4.497974,-0.051006,-0.423317
127.833037,3.704025,0.284960,-0.698198
127.933037,0.563659,0.009468,0.594354
128.033037,3.576358,0.893364,-0.519831
128.133037,0.225861,0.194555,-0.174702
128.233037,-0.219447,-0.222043,0.086129
128.333037,-0.298857,-0.100484,0.091627
128.433037,-0.110716,-0.531743,0.198525
128.533037,0.184323,-0.015577,0.007330
128.633037,0.127514,0.251974,-0.006719
128.733037,-0.052686,0.832890,-0.292596
128.833037,-0.075287,0.538462,-0.512501
128.933037,0.050548,0.028404,-0.200358
129.033037,0.027946,-0.105982,0.078799
129.133037,1.099372,-0.533575,0.106898
129.233037,0.371853,0.005803,-0.092238
129.333037,0.192875,0.105371,-0.202801
129.433037,0.162333,0.195777,-0.215018
129.533037,0.308936,-0.874428,0.167372
129.633037,-0.347114,-0.175008,0.324971
129.733037,-0.460732,-0.064444,0.149047
129.833037,0.707208,0.113312,-0.117283
129.933037,-0.251211,1.561020,-0.435534
130.033037,0.208757,0.273354,-0.259610
130.133037,-0.421026,-0.261137,0.056809
130.233037,0.489747,-0.578167,0.076967
130.333037,-0.262206,0.162791,-0.052533
130.433037,0.131179,0.274576,-0.010384
130.533037,-0.137593,0.242812,-0.137441
130.633037,-0.645818,-0.214102,-0.050089
130.733037,-0.127820,-0.170732,0.153934
130.833037,0.255181,-0.194555,0.004276
130.933037,-0.014202,0.229984,-0.141717
131.033037,-0.028863,-0.034513,0.083686
131.133037,0.088420,0.491427,-0.182032
131.233037,-0.369715,-0.227541,-0.054976
131.333037,-0.055129,0.046119,-0.095292
131.433037,0.971094,0.394302,-0.119726
131.533037,-0.516930,0.575724,-0.076356
131.633037,0.482417,0.121253,-0.199136
131.733037,0.355360,-0.047341,-0.070247
131.833037,-0.478446,-1.351500,0.526550
131.933037,0.581985,-0.426677,0.384223
132.033037,-0.137593,0.297177,-0.108731
132.133037,-0.369104,0.075440,-0.149658
132.233037,-0.053296,0.875039,-0.357346
132.333037,-0.486998,-0.537240,-0.084908
132.433037,-0.105218,-0.278241,0.101401
132.533037,0.591758,-0.583665,0.299926
132.633037,0.327872,-0.252585,0.278546
132.733037,0.407893,0.021074,0.215018
132.833037,0.473254,-0.047952,0.043981
132.933037,-1.015381,0.135303,0.160653
133.033037,-0.266482,-0.039400,0.109342
133.133037,0.169052,0.078494,-0.037262
133.233037,-0.160806,0.162791,-0.116672
133.333037,-0.114992,0.999041,-0.254723
133.433037,1.165955,0.044897,-0.263275
133.533037,-0.381932,-0.132859,0.089795
133.633037,0.035887,-0.314281,0.158820
133.733037,-0.059405,-0.719884,-0.010995
133.833037,0.999193,-0.540294,0.044592
133.933037,-0.860837,-0.093154,0.178978
134.033037,0.555107,-0.248309,0.246782
134.133037,0.012675,0.486540,0.182643
134.233037,-0.552359,0.599547,-0.160653
134.333037,0.445766,0.151185,-0.445919
134.433037,-0.906650,-0.322222,-0.134997
134.533037,0.208757,-0.653912,0.156988
134.633037,0.468367,-0.065055,0.104455
134.733037,-0.193180,-0.015577,0.169205
134.833037,0.349863,0.408962,0.006719
134.933037,-0.625049,0.392469,-0.028710
135.033037,0.089031,-0.088267,0.031764
135.133037,0.205092,-0.023518,0.060474
135.233037,0.269231,-0.561674,-0.156377
135.333037,0.417667,-0.187225,-0.093460
135.433037,0.082312,0.025961,0.095292
135.533037,-1.027598,0.160958,0.130721
135.633037,0.529452,0.848161,-0.263275
135.733037,-0.179131,0.150574,-0.332301
135.833037,0.359636,-0.120031,0.027488
135.933037,-1.191305,0.011912,-0.005498
136.033037,0.209368,-0.585497,-0.063528
136.133037,0.947271,-0.427288,0.258388
136.233037,-0.346503,-0.190890,0.430647
136.333037,0.492801,0.443781,0.032986
136.433037,0.468978,0.597714,-0.379947
136.533037,-1.030652,0.385139,-0.226624
136.633037,-0.436909,-0.052227,0.053755
136.733037,0.637572,0.328330,0.109342
136.833037,-0.412475,0.068109,0.059252
136.933037,0.603364,-0.088878,-0.033597
137.033037,-0.793643,-0.076661,-0.074523
137.133037,-0.505323,-0.653912,0.097736
137.233037,7.931241,-0.342991,-0.422706
137.333037,-3.412498,-0.099874,0.439199
137.433037,2.292968,-0.075440,-0.434923
137.533037,0.107967,-1.010647,-0.533881
137.633037,-0.578625,-0.428509,0.210742
137.733037,0.765239,-0.173175,0.020158
137.833037,0.134234,0.857324,-0.186919
137.933037,-0.678804,0.025350,-0.052533
138.033037,1.658908,-0.762032,0.224181
138.133037,-1.145491,0.215935,0.219294
138.233037,0.079868,-0.083381,0.232733
138.333037,0.159278,0.390637,-0.089795
138.433037,-0.208452,0.032069,-0.197915
138.533037,0.346809,-0.942843,-0.047646
138.633037,0.649178,-0.266635,0.185087
138.733037,-0.034360,-0.344212,0.109953
138.833037,0.076203,0.189057,-0.042148
138.933037,-0.312296,0.794407,-0.320084
139.033037,0.277172,0.068109,-0.036040
139.133037,0.122628,0.125529,-0.155155
139.233037,-0.147367,-0.208604,0.062917
139.333037,-0.129652,-0.425455,0.514944
139.433037,-0.679415,-0.187836,0.317641
139.533037,0.239910,0.259916,-0.177146
139.633037,0.980868,-0.290458,-0.069026
139.733037,0.278394,-0.101706,0.067193
139.833037,-0.659868,-0.109036,0.188141
139.933037,0.234413,0.117588,0.043370
140.033037,-0.453401,0.722327,0.014049
140.133037,-0.707514,0.131027,0.128889
140.233037,0.429273,0.042454,-0.089184
140.333037,-1.438240,-0.235482,-0.156377
140.433037,-0.424692,-0.051617,0.129500
140.533037,1.274686,-0.290458,0.003665
140.633037,0.155613,0.098652,-0.148436
140.733037,-0.033749,-0.691785,-0.062306
140.833037,0.359025,-0.499368,0.282822
140.933037,0.396287,0.042454,0.029932
141.033037,-0.389873,-0.140800,0.048257
141.133037,0.059099,0.630700,-0.009774
141.233037,0.196540,0.458441,-0.180200
141.333037,0.077425,0.249531,-0.016493
141.433037,-0.388652,0.077883,-0.070858
141.533037,-0.172412,0.019853,0.003054
141.633037,0.646124,0.161569,-0.205245
141.733037,0.041385,-0.227541,-0.069637
141.833037,-1.281863,-0.486540,-0.029321
141.933037,0.434771,-0.658799,0.175924
142.033037,-0.192570,-0.115756,0.205245
142.133037,-1.302021,0.235482,-0.023212
142.233037,2.731556,0.386972,-0.219905
142.333037,-0.192570,0.304507,-0.076967
142.433037,-0.466840,-0.160958,0.174091
142.533037,0.649789,0.007025,0.053144
142.633037,0.558773,-0.488372,0.150268
142.733037,-0.747830,0.019242,-0.127667
142.833037,2.532420,0.211659,-0.011606
142.933037,-1.340504,0.882369,0.076967
143.033037,-0.869388,0.354597,-0.047035
143.133037,1.164122,0.172564,-0.136830
143.233037,-0.837013,0.066277,0.038483
143.333037,-0.461953,-0.193944,0.207077
143.433037,0.246630,0.102317,0.004887
143.533037,0.630242,0.013744,0.040927
143.633037,-0.050242,-0.148741,0.042759
143.733037,0.518457,0.730879,-0.485624
143.833037,0.635739,0.051006,-0.198525
143.933037,-0.079563,-0.229984,-0.095903
144.033037,-0.184629,-0.429120,0.004887
144.133037,-0.442406,-0.804180,0.275492
144.233037,0.070706,-0.253196,0.142327
144.333037,0.390179,-0.101706,0.092849
144.433037,0.051769,-0.016187,0.249226
144.533037,-0.167525,0.123697,0.249837
144.633037,-0.383154,0.033902,0.072691
144.733037,0.461037,-0.027183,-0.013439
144.833037,-0.208452,0.595271,-0.183865
144.933037,0.755465,0.308172,-0.216851
145.033037,-0.522427,0.140800,-0.086129
145.133037,0.456150,-0.388193,0.124002
145.233037,-0.234107,-0.737598,0.204634
145.333037,0.459815,-0.266635,-0.020769
145.433037,0.246630,0.413849,-0.550984
145.533037,-0.073454,0.096819,-0.365287
145.633037,0.512348,-0.305118,-0.026877
145.733037,-0.123544,-0.142633,0.025656
145.833037,0.153781,-0.024739,0.214407
145.933037,0.030390,-0.281906,0.275492
146.033037,0.576487,0.860378,-0.092238
146.133037,-0.068568,-0.049173,-0.067804
146.233037,0.109189,-0.008246,-0.181422
146.333037,-0.386208,-0.233038,-0.108120
146.433037,0.161111,-0.510363,0.160042
146.533037,-0.041079,0.105982,0.116061
146.633037,0.255181,-0.277630,0.265108
146.733037,-0.796087,-0.275187,0.234565
146.833037,-0.576182,-0.204328,-0.030542
146.933037,0.009621,0.023518,0.032375
147.033037,0.277783,0.119421,-0.117894
147.133037,-1.480388,0.313059,-0.222348
147.233037,0.241132,-0.567172,-0.122780
147.333037,-0.769820,-0.117588,-0.019547
147.433037,0.085366,-0.066277,-0.059252
147.533037,-0.626882,-0.146298,0.007941
147.633037,-0.465007,-0.303897,0.031153
147.733037,0.311379,-0.227541,0.250447
147.833037,0.037109,-0.207383,0.419652
147.933037,-0.267093,-0.141411,0.206466
148.033037,0.365745,-0.082770,-0.173481
148.133037,0.468978,-0.098652,0.198525
148.233037,0.578930,-0.115145,0.169205
148.333037,-1.053864,0.072996,-0.059863
148.433037,1.097540,0.093154,-0.075745
148.533037,-0.136983,0.416292,-0.164318
148.633037,0.289389,-0.037567,-0.198525
148.733037,1.146408,-0.076050,-0.166761
148.833037,-0.066735,0.299621,-0.225403
148.933037,0.539836,-0.106593,0.050089
149.033037,-0.031306,-0.207383,0.062306
149.133037,-0.232886,-0.258083,0.167372
149.233037,-0.321458,0.142022,-0.250447
149.333037,-0.325734,-0.080326,-0.121559
149.433037,-0.152254,-0.446835,0.215629
149.533037,-0.008705,-0.284960,0.295650
149.633037,0.487303,-0.489594,0.029932
149.733037,0.442712,-0.082159,0.116061
149.833037,-0.130263,-0.134081,0.042759
149.933037,-0.195013,0.148741,0.076967
150.033037,0.015118,0.140800,-0.126445
150.133037,-0.582901,-0.030237,-0.238841
150.233037,0.083533,-0.129805,-0.214407
150.333037,-0.136372,-0.263581,0.129500
150.433037,0.271063,-0.313670,0.337799
150.533037,0.137899,0.090100,0.361011
150.633037,-0.653759,0.061390,0.092238
150.733037,-0.513875,0.000916,0.025045
150.833037,0.709652,-0.116977,-0.025045
150.933037,-0.253654,-0.129194,-0.015271
151.033037,-0.087504,0.308172,0.037873
151.133037,-0.426524,-0.060779,0.117283
151.233037,0.341922,-0.076661,0.145992
151.333037,0.266788,0.051006,-0.136830
151.433037,-0.374602,0.269078,-0.519831
151.533037,-0.446071,-0.018020,-0.394607
151.633037,-0.156530,0.131027,-0.180200
151.733037,0.058489,-0.196387,-0.007330
151.833037,0.184934,0.125529,-0.135608
151.933037,-0.215782,-0.009468,0.089795
152.033037,0.107356,-0.162180,0.432480
152.133037,0.521511,0.129805,0.364676
152.233037,-0.031306,-0.036345,0.273049
152.333037,0.063375,0.086435,0.207688
152.433037,0.083533,-0.151185,0.091627
152.533037,-0.110716,0.135914,0.010384
152.633037,-0.023365,0.087657,-0.109953
152.733037,0.019394,0.110869,0.039705
152.833037,0.087809,0.228151,-0.075134
152.933037,0.183101,0.131638,-0.077578
153.033037,-0.012981,0.248309,-0.158820
153.133037,-0.460732,0.257472,-0.054365
153.233037,-0.170579,0.273965,-0.021991
153.333037,0.275950,0.153628,-0.069026
153.433037,0.059710,0.407130,-0.145992
153.533037,-0.136372,-0.040621,0.034207
153.633037,0.084144,-0.000305,0.173481
153.733037,0.049326,-0.036956,0.111785
153.833037,-0.083839,0.528077,-0.024434
153.933037,0.352917,1.242158,0.072691
154.033037,-0.113159,-0.636808,0.224181
154.133037,0.060932,0.073607,0.251669
154.233037,-0.031917,-0.184781,0.200358
154.333037,0.009010,0.140800,0.006108
154.433037,0.121406,0.149352,-0.773943
154.533037,0.200205,-0.021685,-0.150879
154.633037,-0.047799,0.151796,-0.445919
154.733037,-0.075287,-0.178062,-0.357956
154.833037,-0.300079,-0.617261,0.434923
154.933037,-0.097277,-0.306951,0.429426
155.033037,0.068873,0.014355,-0.138662
155.133037,0.010232,0.047952,-0.191195
155.233037,0.043217,-0.129194,0.093460
155.333037,0.002291,-0.134692,0.284655
155.433037,0.216698,-0.033291,0.207077
155.533037,-0.454623,-0.171953,0.221738
155.633037,-0.352612,0.055893,-0.068415
155.733037,0.574655,0.291069,-0.144160
155.833037,-0.304965,-0.409573,0.508836
155.933037,-0.106440,-0.184781,0.681706
156.033037,0.063986,-0.093765,0.124002
156.133037,0.156835,0.068720,0.085519
156.233037,0.102470,-0.099263,0.371395
156.333037,0.073149,0.231817,-0.370173
156.433037,-0.042301,0.192722,-0.448973
156.533037,-0.278699,-0.206772,0.067193
156.633037,0.245408,0.358262,-0.235787
156.733037,0.434160,0.222654,-0.339631
156.833037,-0.167525,-0.089489,-0.047646
156.933037,-0.455845,0.002138,-0.287098
157.033037,0.516624,0.165845,-0.180811
157.133037,-0.142480,-0.142633,0.467909
157.233037,0.288778,-0.129805,0.591911
157.333037,0.180047,-0.263581,0.415987
157.433037,0.371853,0.043065,0.124613
157.533037,-0.183407,0.141411,-0.194249
157.633037,-0.140648,-0.044897,0.000000
157.733037,-0.232886,-0.018020,0.080021
157.833037,0.129958,0.022296,0.268773
157.933037,0.368799,0.104760,-0.348794
158.033037,0.205092,0.513417,-0.698809
158.133037,-0.426524,0.197609,-1.023322
158.233037,-0.452791,0.020463,-0.627951
158.333037,0.615581,-0.054060,-0.406824
158.433037,-0.206619,-0.402854,-0.328636
158.533037,-0.129652,-0.603212,0.462411
158.633037,0.143396,-0.548846,1.157556
158.733037,-0.174244,-0.263581,0.979188
158.833037,0.452485,0.173786,0.631616
158.933037,0.123238,0.625202,-0.296261
159.033037,-0.056962,0.333217,-0.568088
159.133037,-0.196235,-0.124307,0.301148
159.233037,0.034666,-0.024739,0.378114
159.333037,-0.433854,0.364370,-0.219294
159.433037,0.191042,0.072385,0.117283
159.533037,-0.151643,0.094987,-0.161875
159.633037,-0.018478,0.132859,-0.187530
159.733037,-0.030695,-0.374144,0.289542
159.833037,0.375518,0.216545,0.031764
159.933037,0.104302,0.210437,-0.469131
160.033037,-0.623217,0.181116,-0.329247
160.133037,0.831821,0.401021,-0.505782
160.233037,-0.352612,-0.228762,-0.041538
160.333037,-0.310463,-0.270911,0.282211
160.433037,0.117130,0.098041,0.000611
160.533037,0.023670,0.025961,-0.015882
160.633037,0.118352,-0.231817,0.301148
160.733037,-0.361774,-0.227541,0.411100
160.833037,-0.329399,0.018631,0.334744
160.933037,0.461648,0.839610,-0.296872
161.033037,0.426830,0.763254,-0.639557
161.133037,0.109189,0.647193,-0.623675
161.233037,-0.262817,-0.027183,-0.313975
161.333037,-0.513264,-0.294734,0.009163
161.433037,-0.116825,-0.310005,0.179589
161.533037,0.365134,-0.171953,0.232122
161.633037,0.259457,-0.179284,0.007941
161.733037,0.154392,-0.197609,0.007941
161.833037,-0.235940,-0.058336,0.324360
161.933037,0.028557,-0.120642,0.089795
162.033037,-0.130263,0.375366,-0.128889
162.133037,-0.348336,-0.062001,-0.028099
162.233037,-0.140037,0.185392,0.053755
162.333037,0.197762,0.274576,-0.020158
162.433037,0.320542,0.327109,-0.273049
162.533037,-0.323902,-0.388193,-0.496619
162.633037,0.120795,-0.102928,-0.099568
162.733037,-1.381431,-0.126140,0.096514
162.833037,-0.085671,-0.055282,-0.058030
162.933037,-1.482221,0.806624,-0.116672
163.033037,0.887408,0.193333,-0.436145
163.133037,-0.681858,0.177451,0.169816
163.233037,1.967997,-0.714386,0.105677
163.333037,-1.200468,0.131638,0.215018
163.433037,-1.356997,0.223876,-0.023823
163.533037,0.471421,0.470658,-0.369563
163.633037,1.328440,0.282517,-0.056198
163.733037,-1.340504,0.164623,-0.202190
163.833037,-0.364829,0.589162,-0.583359
163.933037,0.531895,0.011912,-0.547930
164.033037,0.906345,0.267857,-0.393996
164.133037,0.079257,-0.156682,0.193639
164.233037,0.473865,-0.235482,0.050089
164.333037,0.078647,-0.082159,-0.168594
164.433037,-0.361163,0.096819,-0.271827
164.533037,0.355971,0.214713,-0.070247
164.633037,-1.905538,0.231206,-0.052533
164.733037,-0.430189,-0.253807,0.393386
164.833037,-1.262316,0.228762,0.126445
164.933037,1.927070,0.145687,-0.433702
165.033037,-0.523649,0.221432,-0.138051
165.133037,0.519067,-0.148741,0.252891
165.233037,-1.304464,0.107815,0.339631
165.333037,0.403006,-0.055893,-0.049479
165.433037,-2.806538,-0.024739,0.372006
165.533037,2.796917,-0.210437,-0.065972
165.633037,0.386514,-0.065055,-0.214407
165.733037,0.340089,-0.386972,-0.099568
165.833037,-0.716066,-0.390637,0.309700
165.933037,-1.219557,0.642917,-0.122780
166.033037,-0.631769,0.083991,-0.034818
166.133037,1.049894,0.423623,-0.504560
166.233037,0.102470,-0.232427,-0.265719
166.333037,0.601532,0.010079,-0.034818
166.433037,0.567324,-0.190279,0.469742
166.533037,-3.514510,0.429731,0.481348
166.633037,2.313126,0.628256,-0.157599
166.733037,0.371242,0.230595,-0.475850
166.833037,4.294867,-0.697893,-0.414765
166.933037,-2.221957,-0.425455,0.269994
167.033037,-0.471116,-0.437061,0.692090
167.133037,-0.232886,-0.485929,0.334133
167.233037,0.094529,-0.023518,-0.096514
167.333037,0.326040,0.263581,-0.268162
167.433037,1.071273,0.114534,-0.357956
167.533037,-0.606724,0.169510,-0.042148
167.633037,0.055434,0.150574,-0.053144
167.733037,-0.067346,0.176229,-0.366508
167.833037,1.181226,0.050395,-0.460579
167.933037,-0.157751,-0.567172,0.331690
168.033037,1.999761,-0.135914,0.438588
168.133037,1.941731,-0.636808,0.096514
168.233037,-0.751495,-0.132859,0.241285
168.333037,-0.663533,-0.104760,0.111174
168.433037,0.090253,-0.039400,-0.202801
168.533037,0.969873,-0.754091,-0.248615
168.633037,3.930038,-0.250142,0.138662
168.733037,-1.034928,0.733933,-0.048257
168.833037,-0.100332,0.211659,-0.417209
168.933037,1.205660,-0.046119,-0.328636
169.033037,-1.476112,-0.168899,-0.419041
169.133037,-1.199246,-0.165845,-0.125835
169.233037,2.741941,-0.515860,0.264497
169.333037,-0.749051,-0.033291,0.488067
169.433037,-1.277587,0.196998,0.484402
169.533037,1.434728,0.882980,-0.094681
169.633037,1.114033,0.312448,-0.395218
169.733037,1.583774,0.806013,-0.508225
169.833037,-0.020311,0.250753,-0.075745
169.933037,-0.095445,0.363149,-0.073913
170.033037,-0.256709,-0.190890,-0.114228
170.133037,0.620468,-0.617261,0.127667
170.233037,0.283891,-0.382696,0.363454
170.333037,-0.755771,0.564728,0.177757
170.433037,1.354096,-0.326498,-0.171037
170.533037,-0.056351,-0.135914,-0.119726
170.633037,1.359593,0.011301,-0.139884
170.733037,-0.114992,-0.028404,-0.081243
170.833037,-1.223222,-0.476766,0.230900
170.933037,2.537307,-0.363760,0.089795
171.033037,0.900236,0.153017,0.134997
171.133037,-0.698962,0.215935,-0.192417
171.233037,1.071884,0.062001,-0.183254
171.333037,-0.315350,-0.041232,0.219905
171.433037,0.255181,0.214713,-0.123391
171.533037,0.843427,-0.124918,-0.130110
171.633037,-0.253043,0.176229,-0.032375
171.733037,-0.664144,-0.077272,0.397662
171.833037,-0.711179,-0.206161,0.347572
171.933037,0.777456,0.277019,-0.154544
172.033037,0.092085,0.082159,-0.258999
172.133037,-2.939092,-0.132248,0.061696
172.233037,-0.029473,-0.632532,-0.139884
172.333037,1.722437,0.168899,-0.151490
172.433037,-0.931695,-0.046730,0.329858
172.533037,0.145229,-0.368646,0.256556
172.633037,0.290000,-0.426066,0.261443
172.733037,-1.020268,0.256861,0.015271
172.833037,0.570379,0.008857,-0.083075
172.933037,-0.304355,0.346656,0.002443
173.033037,-0.436298,0.178062,-0.139273
173.133037,-0.866334,-0.741874,0.124002
173.233037,0.481806,-0.069331,-0.005498
173.333037,-0.961626,0.117588,-0.142938
173.433037,0.413391,0.127362,-0.150268
173.533037,0.390790,-0.971553,-0.087962
173.633037,0.465313,0.096819,0.189363
173.733037,-1.107008,0.297788,0.235787
173.833037,1.322942,-0.590995,0.329858
173.933037,-1.562853,0.342380,-0.036651
174.033037,-1.642874,-0.102928,0.019547
174.133037,1.270410,-0.201885,0.026877
174.233037,-0.114992,-0.009468,0.006108
174.333037,-0.403312,-0.140800,0.100179
174.433037,1.486039,-0.038178,0.118504
174.533037,-1.033706,0.036956,0.010995
174.633037,-1.500546,0.144465,0.083075
174.733037,0.307714,0.514639,-0.260832
174.833037,0.207535,1.283695,-0.521053
174.933037,-0.935971,0.434007,-0.192417
175.033037,-0.587788,-0.306951,0.121559
175.133037,-0.880384,-0.108425,-0.053144
175.233037,-0.301300,-0.295345,0.254723
175.333037,1.260025,-0.485318,0.328025
175.433037,-1.443127,0.079716,0.306645
175.533037,-0.829072,-0.105982,0.013439
175.633037,-0.229831,0.463328,-0.393386
175.733037,0.019394,-0.164623,-0.417820
175.833037,0.124460,-0.022907,-0.000611
175.933037,-0.449125,-0.127362,-0.015882
176.033037,-0.573738,0.586108,-0.158209
176.133037,-0.038025,-0.239147,0.093460
176.233037,-0.232886,-0.484707,0.589468
176.333037,-0.847398,0.305118,0.120948
176.433037,0.431105,-0.170732,0.183865
176.533037,0.936276,-0.107204,-0.172259
176.633037,-1.523148,-0.652690,-0.075745
176.733037,-1.121668,-0.247699,-0.116672
176.833037,2.547080,-0.125529,-0.150879
176.933037,-2.641609,0.908024,-0.147214
177.033037,0.305882,0.240368,0.003054
177.133037,1.535517,0.070553,0.284044
177.233037,0.629020,-0.487151,0.223570
177.333037,-1.097845,-0.121253,-0.151490
177.433037,2.336338,0.414460,-0.448973
177.533037,-0.845565,0.524412,0.130110
177.633037,-1.859114,-0.299010,0.427593
177.733037,3.883614,-1.039357,0.080632
177.833037,-1.675859,0.398578,-0.031153
177.933037,2.588618,0.276408,-0.302369
178.033037,1.619203,0.335050,0.013439
178.133037,-1.275144,-0.082159,-0.131943
178.233037,-0.705681,0.466382,-0.483180
178.333037,0.382238,0.331995,-0.274881
178.433037,-0.069178,0.391248,-0.045814
178.533037,1.699835,-0.138357,0.091627
178.633037,-0.676971,-0.069942,0.204023
178.733037,0.291832,-0.470658,0.282822
178.833037,-0.057572,0.142022,-0.161264
178.933037,0.798225,0.375366,-0.329247
179.033037,0.527008,-0.071775,-0.221127
179.133037,1.519024,-0.178062,-0.189974
179.233037,0.413391,-0.520136,0.295650
179.333037,-0.858393,-0.277019,0.415376
179.433037,-1.784590,0.707667,0.367730
179.533037,-0.821742,0.725381,-0.213186
179.633037,-0.580458,1.453511,-0.400716
179.733037,-1.450457,0.629478,-0.094681
179.833037,3.225732,0.116366,-0.814870
179.933037,-2.180419,0.002749,0.155766
180.033037,-1.195581,0.022296,-0.298704
180.133037,0.203259,-0.083381,-0.102622
180.233037,0.512959,0.081548,-0.025045
180.333037,-0.727672,0.065666,0.262053
180.433037,1.190999,-0.170732,-0.073302
180.533037,-2.380166,1.002095,-0.323749
180.633037,1.139688,0.467604,-0.205245
180.733037,1.344933,-0.125529,0.126445
180.833037,-0.024587,-0.179895,0.501506
180.933037,-1.339893,0.629478,0.042148
181.033037,-0.436298,-0.088878,-0.156377
181.133037,0.771958,0.750426,-0.211353
181.233037,-1.008051,-0.318557,0.113007
181.333037,-0.146145,-0.085824,0.166761
181.433037,1.487260,-0.298399,0.291374
181.533037,-0.764323,0.728435,0.286487
181.633037,-1.604390,0.421179,-0.085519
181.733037,0.754244,0.273354,-0.520442
181.833037,0.346198,0.183560,-0.316419
181.933037,-2.636722,-0.120031,0.324360
182.033037,0.709041,-0.705223,0.270605
182.133037,0.958267,-0.029626,-0.333523
182.233037,0.578930,-0.030237,-0.083075
182.333037,-1.780314,-0.029626,0.218683
182.433037,0.531284,-0.020463,0.082464
182.533037,0.417056,-0.411406,0.048868
182.633037,-1.141215,-0.101706,0.067193
182.733037,0.064597,-0.199442,0.006719
182.833037,2.048018,-0.152406,-0.219294
182.933037,-0.103997,-0.708888,0.035429
183.033037,-0.894433,0.511585,-0.188141
183.133037,0.583817,-0.040621,-0.188141
183.233037,2.038856,0.002138,0.058030
183.333037,-1.901873,0.035735,0.494175
183.433037,0.007788,0.203718,0.063528
183.533037,0.797614,0.283128,-0.018325
183.633037,0.330927,0.224486,0.063528
183.733037,0.055434,0.101706,0.096514
183.833037,-0.326956,0.216545,-0.150268
183.933037,0.218531,0.463328,0.016493
184.033037,0.231969,0.258694,-0.102622
184.133037,1.366313,0.241590,-0.426371
184.233037,0.630853,-0.153017,-0.136830
184.333037,-0.695297,-0.331385,0.071469
184.433037,-0.395982,0.236092,0.020769
184.533037,0.874581,-0.503644,0.100790
184.633037,0.456761,-0.303286,-0.012217
184.733037,-0.219447,-0.678957,-0.067804
184.833037,-0.700184,-0.003360,0.151490
184.933037,0.588704,-0.193333,0.183865
185.033037,-2.377112,-0.283128,0.522885
185.133037,-1.132663,0.091322,0.262664
185.233037,-1.330120,0.179895,-0.036040
185.333037,0.617414,0.463328,-0.119115
185.433037,3.288649,0.215935,-0.394607
185.533037,-1.336228,0.169510,-0.080632
185.633037,-0.704460,-0.717440,0.153323
185.733037,1.610651,-0.354597,-0.048257
185.833037,-0.147367,0.179895,-0.142938
185.933037,-1.315460,0.685065,-0.425150
186.033037,0.217920,-0.072996,-0.191806
186.133037,0.659562,-0.211048,0.020769
186.233037,-0.689188,0.035124,0.166150
186.333037,0.265566,-0.262359,0.199136
186.433037,-1.339283,0.275187,0.057420
186.533037,-3.301935,-0.559231,0.036651
186.633037,0.270453,0.026572,-0.143549
186.733037,-0.401479,-0.306340,-0.251058
186.833037,-0.144313,0.184170,-0.120337
186.933037,-0.950020,-0.409573,0.086740
187.033037,1.839719,-0.813954,0.425761
187.133037,-1.818798,0.468825,0.114228
187.233037,0.576487,-0.040621,-0.408046
187.333037,0.578930,-0.195777,-0.100179
187.433037,-0.403312,-0.671627,0.210742
187.533037,0.580152,-0.012522,0.205856
187.633037,2.667417,0.079105,-0.018936
187.733037,1.084712,-0.799904,0.284655
187.833037,-1.859114,-0.034513,-0.240674
187.933037,0.324207,0.327109,-0.065972
188.033037,0.701711,-0.408351,-0.119726
188.133037,-1.729614,-0.073607,-0.373228
188.233037,0.603364,-1.451679,0.635281
188.333037,-0.846176,-0.548846,0.784328
188.433037,-0.614054,-0.118810,0.342074
188.533037,0.277172,0.941621,-0.295039
188.633037,-0.044134,-0.162791,-0.249837
188.733037,-0.892601,-0.049784,0.086129
188.833037,1.716328,0.088267,-0.177146
188.933037,-0.402090,0.335661,0.093460
189.033037,-0.085060,0.606266,-0.078188
189.133037,1.863542,-0.135303,-0.059252
189.233037,-0.745386,0.058947,0.686592
189.333037,1.433506,-0.673459,0.046424
189.433037,0.688883,0.901916,-0.473407
189.533037,-1.727781,0.484707,-0.304202
189.633037,1.431062,-0.155461,0.444697
189.733037,1.310115,0.256861,0.109342
189.833037,-1.961125,0.857935,-0.597409
189.933037,-0.272591,0.212880,-0.493565
190.033037,2.023584,-0.973385,0.185698
190.133037,1.098151,-0.099263,0.331690
190.233037,0.083533,0.342380,-0.085519
190.333037,-1.631878,-0.005803,-0.036040
190.433037,0.773791,-0.107815,0.054976
190.533037,-1.116171,0.551290,0.064139
190.633037,0.842206,-0.138968,-0.054976
190.733037,-1.003164,0.306340,0.088573
190.833037,-0.391095,-0.011912,-0.067804
190.933037,1.176339,-0.113923,-0.024434
191.033037,2.800582,0.289847,0.003665
191.133037,-2.174311,0.208604,-0.246782
191.233037,0.321764,-0.416292,-0.093460
191.333037,1.864764,0.180505,-0.045814
191.433037,-2.606791,-0.368646,0.389110
191.533037,0.098194,-0.646582,0.450194
191.633037,0.108578,-0.321000,0.313365
191.733037,-0.162027,-0.427288,0.438588
191.833037,-0.637877,-0.842664,1.090362
191.933037,-0.695908,-0.217767,1.134954
192.033037,1.711441,0.164623,0.229679
192.133037,-0.436298,0.248309,-0.029932
192.233037,1.561784,0.489594,0.218683
192.333037,0.773180,0.056503,0.340242
192.433037,-0.542585,0.086435,0.466687
192.533037,-0.188294,-0.416903,0.519831
192.633037,-0.778983,0.044897,0.660326
192.733037,1.005913,-0.549457,0.792880
192.833037,-0.242048,-0.704001,1.064096
192.933037,-0.096667,0.121864,0.940705
193.033037,0.227082,0.043065,0.569920
193.133037,0.699267,0.438894,0.948646
193.233037,0.296719,0.004581,1.008509
193.333037,0.615581,0.014355,0.971247
193.433037,-0.022143,-0.267246,0.451416
193.533037,-0.047188,-0.110258,0.456914
193.633037,0.084755,-0.159737,0.797767
193.733037,0.103080,0.105982,0.397051
193.833037,0.130569,0.458441,0.051922
193.933037,0.037109,0.106593,0.366508
194.033037,0.172106,0.020463,0.172870
194.133037,0.049326,-0.105982,0.177757
194.233037,-0.267704,0.293512,0.025656
194.333037,-0.028863,0.455387,-0.444086
194.433037,-0.248157,0.250142,-0.624897
194.533037,-0.006261,-0.130416,-0.182643
194.633037,-0.198067,-0.010079,0.227235
194.733037,-0.185239,-0.238536,0.389110
194.833037,-0.116214,0.101095,0.160042
194.933037,-0.111327,-0.293512,0.499062
195.033037,0.009010,-0.192111,0.453249
195.133037,-0.259152,-0.203107,0.188141
195.233037,0.030390,0.561063,0.018936
195.333037,-0.272591,-0.011301,-0.018325
195.433037,0.045050,-0.086435,0.249226
195.533037,-0.061237,-0.221432,0.277325
195.633037,0.120184,0.005803,0.000611
195.733037,0.033444,-0.102317,-0.004276
195.833037,0.109800,0.010690,0.043981
195.933037,0.113465,0.046730,0.005498
196.033037,-0.041079,0.041232,-0.014660
196.133037,-0.005039,0.017409,0.003054
196.233037,0.012064,0.051617,0.023212
196.333037,0.040163,0.033902,0.131943
196.433037,0.023059,0.127972,0.002443
196.533037,0.032833,0.178062,0.010995
196.633037,0.027335,0.048562,0.020158
196.733037,-0.023365,0.129194,-0.177757
196.833037,-0.011759,0.058336,-0.031153
196.933037,0.013897,-0.021074,-0.081854
197.033037,-0.019700,0.246477,-0.258388
197.133037,-0.160806,-0.062001,0.049479
197.233037,0.057267,-0.036956,-0.000611
197.333037,-0.134539,0.138357,0.008552
197.433037,0.169052,-0.000305,-0.002443
197.533037,0.027946,-0.039400,0.005498
197.633037,-0.054518,0.006414,0.064750
197.733037,0.068873,0.029015,0.019547
197.833037,0.027335,0.231817,-0.147214
197.933037,0.103080,0.089489,0.056198
198.033037,0.153170,-0.309394,0.147214
198.133037,-0.366050,0.019853,0.047646
198.233037,0.082312,-0.069942,0.051311
198.333037,0.120795,-0.003360,-0.056809
198.433037,0.025503,-0.056503,0.032986
198.533037,-0.009926,0.079716,0.000611
198.633037,-0.027030,0.021074,0.010995
198.733037,0.018173,-0.010690,0.018936
198.833037,0.007788,-0.030848,0.041538
198.933037,0.002902,-0.045508,0.023212
199.033037,0.007788,-0.043065,0.060474
199.133037,0.001680,-0.044286,0.094681
199.233037,-0.007483,-0.010079,0.030542
199.333037,0.008399,-0.038789,0.089184
199.433037,0.029168,-0.080937,0.187530
199.533037,-0.023365,-0.055893,0.188752
199.633037,-0.017867,-0.018631,0.067193
199.733037,-0.009315,0.058336,-0.037873
199.833037,0.016340,0.007636,0.009774
199.933037,-0.008705,0.002749,0.026266
200.033037,0.016340,-0.008857,0.078799
200.133037,0.009621,-0.065666,0.119726
200.233037,0.035276,-0.066888,0.150268
200.333037,0.009621,-0.121253,0.265108
200.433037,-0.158362,-0.035124,0.281601
200.533037,0.034666,-0.008857,0.166761
200.633037,0.000458,0.154239,0.018936
200.733037,0.027335,-0.208604,0.199136
200.833037,-0.063070,-0.124918,0.158820
200.933037,-0.127820,-0.167678,0.224792
201.033037,-0.040469,-0.118810,0.206466
201.133037,-0.102775,-0.019242,0.084908
201.233037,-0.038636,-0.643528,0.599852
201.333037,-0.080174,0.099874,0.425150
201.433037,0.339478,0.047952,0.291985
201.533037,-0.326956,0.728435,-0.601685
201.633037,-0.264039,0.408351,-1.242005
201.733037,0.664449,0.758978,-1.183975
201.833037,0.352306,0.277630,-0.185698
201.933037,0.268620,-0.342991,0.761727
202.033037,-0.560911,0.326498,0.387888
202.133037,-0.815023,0.649025,-0.792269
202.233037,0.043217,0.197609,-0.979952
202.333037,0.362080,-0.110258,-0.312143
202.433037,0.002902,-0.752869,1.150836
202.533037,-0.064903,-0.797461,1.393343
202.633037,0.317488,-0.080937,0.728741
202.733037,0.041996,-0.079105,0.473407
202.833037,0.104913,0.150574,0.070858
202.933037,0.181880,0.089489,-0.103844
203.033037,-0.174244,0.245255,-0.207077
203.133037,0.159889,-0.006414,-0.410489
203.233037,-0.173022,-0.001527,-0.334133
203.333037,-0.623217,0.189668,0.190584
203.433037,0.399952,-0.003971,0.361622
203.533037,0.059099,0.131027,-0.040316
203.633037,0.013286,-0.116977,0.301148
203.733037,0.051158,-0.368035,0.707972
203.833037,-0.140648,-0.193944,0.340242
203.933037,0.109800,0.236092,-0.332912
204.033037,0.312601,0.536629,-0.627951
204.133037,-0.105218,0.349099,-0.742790
204.233037,-0.146145,0.133470,-0.326192
204.333037,-0.078341,-0.209826,0.233955
204.433037,-0.031306,-0.391248,0.156988
204.533037,-0.169968,-0.254418,0.254723
204.633037,0.246019,-0.247088,0.267551
204.733037,-0.206008,-0.450500,0.706750
204.833037,-1.059973,-1.578124,1.533227
204.933037,0.093918,-0.841442,1.981588
205.033037,0.498299,-0.289236,0.213186
205.133037,-0.435687,0.187225,-0.487456
205.233037,1.115865,0.272743,-0.165540
205.333037,-0.926808,-0.122475,0.269384
205.433037,0.340700,-0.304507,0.444697
205.533037,-0.298857,-0.779136,1.597366
205.633037,-0.180353,-0.160347,1.044549
205.733037,0.269231,0.517082,-0.093460
205.833037,0.677277,0.355208,-0.422095
205.933037,-0.105218,-0.175008,0.996292
206.033037,-0.025808,-0.207383,0.869236
206.133037,0.128736,0.326498,-0.058641
206.233037,0.150116,0.288625,0.095903
206.333037,-0.044134,-0.248920,0.660937
206.433037,0.100026,-0.304507,0.798377
206.533037,0.041996,-0.205550,0.552206
206.633037,0.472643,-0.000305,1.079978
206.733037,0.258847,-0.041232,1.020115
206.833037,0.523343,0.459663,-0.452027
206.933037,-0.523038,0.589773,-0.505782
207.033037,-0.054518,-0.393691,0.447751
207.133037,-0.372159,-0.651469,0.922990
207.233037,0.582596,0.239758,0.117894
207.333037,-0.048410,0.269689,-0.034207
207.433037,0.008399,0.240368,0.114228
207.533037,-0.651927,0.267246,-0.376282
207.633037,-0.102164,0.645971,-0.696977
207.733037,0.159889,-0.340547,0.169205
207.833037,0.196540,-0.143244,0.796545
207.933037,0.380405,0.239758,0.067193
208.033037,-0.182185,-0.105371,-0.156377
208.133037,-0.198067,0.088878,0.015882
208.233037,0.503796,0.269078,-0.104455
208.333037,-0.741110,0.091322,-0.067804
208.433037,0.390179,-0.071164,0.171037
208.533037,0.050548,0.025350,0.028099
208.633037,-0.297635,-0.153628,-0.078188
208.733037,-0.466840,-0.239758,0.349405
208.833037,-0.067957,-0.346045,0.105066
208.933037,0.600921,0.024739,-0.605960
209.033037,-0.492496,0.066277,-0.576640
209.133037,-0.100332,-0.282517,0.124002
209.233037,0.645513,-0.363760,0.435534
209.333037,-0.369715,-0.298399,0.249226
209.433037,-0.062459,0.072385,-0.045814
209.533037,-0.118046,0.239147,-0.118504
209.633037,-0.097277,0.042454,0.176535
209.733037,0.130569,0.135914,0.147214
209.833037,0.109800,0.264191,-0.186308
209.933037,-0.508378,0.343602,-0.582137
210.033037,-0.408810,0.162180,-0.397051
210.133037,0.028557,-0.074218,-0.042148
210.233037,-0.072844,-0.239758,0.243728
210.333037,-0.180353,-0.135303,-0.056809
210.433037,0.371242,0.224486,-0.414765
210.533037,0.470200,-0.443781,0.207077
210.633037,0.139731,-0.383918,0.482569
210.733037,0.124460,-0.105982,0.372006
210.833037,-0.260984,-0.080937,0.056809
210.933037,0.049326,0.616650,-0.446529
211.033037,-0.283586,0.097430,-0.330468
211.133037,-0.249378,-0.010690,0.048868
211.233037,-0.075287,-0.111480,0.346350
211.333037,0.148283,0.051006,0.145992
211.433037,-0.213338,0.474934,-0.564423
211.533037,-0.329399,0.311227,-0.687203
211.633037,0.187988,-0.072996,-0.208910
211.733037,0.209979,-0.231206,0.213797
211.833037,0.249684,-0.233038,0.247393
211.933037,-0.177909,0.299010,-0.342685
212.033037,-0.021532,-0.236092,-0.010995
212.133037,0.148283,-0.102928,0.149658
212.233037,0.142786,-0.091322,0.009163
212.333037,0.078036,-0.139579,0.097125
212.433037,0.271674,0.088878,0.360400
212.533037,-0.323902,0.085824,0.134386
212.633037,0.115297,0.015577,0.187530
212.733037,0.170885,0.405297,-0.183865
212.833037,-0.093612,0.112090,-0.408657
212.933037,0.738362,0.578167,-0.335355
213.033037,0.114076,-0.098652,-0.073302
213.133037,0.048715,-0.065666,-0.056809
213.233037,0.041996,-0.145687,-0.137441
213.333037,0.031000,-0.017409,-0.111785
213.433037,0.969262,-0.098652,-0.060474
213.533037,0.544112,-0.322833,0.307256
213.633037,0.131790,-0.199442,0.500284
213.733037,-0.176077,-0.074829,0.240063
213.833037,-0.205397,0.176840,-0.037262
213.933037,0.038331,0.103539,-0.193639
214.033037,0.756687,0.179284,-0.354902
214.133037,-0.109494,-0.013133,-0.211353
214.233037,-0.220058,-0.206772,0.031153
214.333037,-0.138815,-0.221432,0.136830
214.433037,-0.487609,-0.671627,0.253502
214.533037,0.432327,-0.128583,0.058030
214.633037,-0.246324,-0.270911,0.405603
214.733037,-0.182796,-0.064444,0.310921
214.833037,-0.461953,0.040010,-0.019547
214.933037,-0.754549,-0.027183,0.133165
215.033037,-0.082617,0.078494,0.087962
215.133037,-0.105829,0.104149,-0.048257
215.233037,0.161722,0.135914,-0.152712
215.333037,0.070095,0.327109,0.013439
215.433037,0.009621,-0.079105,0.061696
215.533037,-0.264039,-0.024128,0.087351
215.633037,0.039552,-0.176840,0.025656
215.733037,-0.923143,0.088267,0.025045
215.833037,0.579541,0.540905,0.177146
215.933037,-0.045355,0.273965,-0.013439
216.033037,-0.495550,0.096819,0.071469
216.133037,-0.147367,0.002749,-0.141106
216.233037,-0.240827,0.038178,-0.266940
216.333037,0.180047,0.054060,-0.302369
216.433037,0.606419,0.258694,-0.323138
216.533037,-0.497993,0.052838,-0.191195
216.633037,-0.220669,-0.170732,0.124613
216.733037,0.195318,-0.273354,0.308478
216.833037,-0.403312,-0.488983,0.400716
216.933037,0.281448,0.057725,0.112396
217.033037,-0.123544,0.253807,-0.288320
217.133037,0.608862,0.101706,-0.226624
217.233037,-0.041079,-0.254418,0.229679
217.333037,0.421943,0.478599,0.033597
217.433037,-0.260984,-0.054671,-0.075134
217.533037,0.114076,0.200052,-0.176535
217.633037,0.222196,0.099263,-0.290763
217.733037,-0.313517,0.145076,-0.312754
217.833037,-0.711179,0.162180,-0.291374
217.933037,-0.102164,0.186614,-0.081243
218.033037,-0.352612,0.056503,-0.170426
218.133037,0.312601,0.035124,-0.296872
218.233037,-0.003818,0.078494,0.209521
218.333037,-0.091169,-0.122475,0.564423
218.433037,-0.460732,-0.091933,0.159431
218.533037,0.332148,0.167678,-0.048868
218.633037,-0.157140,0.047952,-0.069026
218.733037,-0.155919,-0.032680,-0.452027
218.833037,0.149505,-0.093154,-0.120948
218.933037,0.180047,-0.274576,0.067193
219.033037,-0.188905,-0.186003,-0.224181
219.133037,-0.306798,-0.122475,-0.003054
219.233037,-0.248768,-0.347267,0.311532
219.333037,-0.220669,-0.062612,0.239452
219.433037,0.010232,0.082770,0.061696
219.533037,0.250295,0.151796,-0.060474
219.633037,0.079257,0.011301,-0.010995
219.733037,0.485471,0.346656,-0.001833
219.833037,0.418278,0.043676,-0.057420
219.933037,0.021227,0.215324,-0.395218
220.033037,-0.027030,0.047952,-0.020158
220.133037,-0.227999,-0.039400,0.189363
220.233037,-0.832127,0.000305,-0.205856
220.333037,-0.112549,0.051006,-0.246782
220.433037,0.059099,-0.162180,-0.040927
220.533037,0.158057,-0.210437,0.097736
220.633037,-0.029473,0.019242,-0.016493
220.733037,0.159278,0.212269,-0.002443
220.833037,0.077425,0.145687,-0.321916
220.933037,0.426219,0.068720,0.119726
221.033037,0.584428,-0.130416,0.414765
221.133037,0.006567,0.625813,0.047646
221.233037,-1.012937,0.258083,0.025045
221.333037,0.514181,0.164012,-0.103233
221.433037,-0.020311,0.288625,-0.433702
221.533037,-0.538309,0.222043,-0.398272
221.633037,-0.211506,-0.390637,0.241285
221.733037,0.029779,-0.106593,0.138662
221.833037,-0.005650,-0.067499,0.117283
221.933037,-0.292749,0.286793,-0.018325
222.033037,0.227082,0.645971,-0.295039
222.133037,-0.019089,0.191501,-0.265108
222.233037,-0.141258,-0.057114,0.036040
222.333037,0.148894,-0.189668,-0.048868
222.433037,0.281448,0.100484,-0.032375
222.533037,-0.245102,-0.829225,0.277325
222.633037,0.001069,-0.105982,0.197915
222.733037,-0.176077,-0.071775,0.220516
222.833037,-0.300690,0.052227,0.186919
222.933037,-0.385597,-0.016187,-0.175313
223.033037,-0.493717,-0.181116,-0.104455
223.133037,0.204481,0.045508,0.055587
223.233037,0.171495,-0.162791,0.274881
223.333037,0.054824,0.000916,-0.016493
223.433037,-0.717898,-0.614818,0.010384
223.533037,0.202649,0.121864,-0.099568
223.633037,0.274118,0.101095,-0.172259
223.733037,0.133012,-0.042454,-0.028099
223.833037,-0.137593,-0.248309,0.127667
223.933037,0.174550,-0.451111,0.328636
224.033037,-0.002596,-0.279463,0.530215
224.133037,0.018784,-0.066277,0.063528
224.233037,0.026725,0.081548,-0.029321
224.333037,-0.132096,-0.696060,0.205856
224.433037,0.043217,0.196387,-0.014049
224.533037,0.268620,-0.052227,-0.020158
224.633037,-0.069789,0.173786,-0.003665
224.733037,-0.283586,-0.024739,0.026266
224.833037,0.107356,-0.270911,0.109342
224.933037,0.282059,0.055282,-0.017715
225.033037,0.275950,0.101706,0.073913
225.133037,-0.358720,0.047341,0.051311
225.233037,-0.243881,-0.909246,0.158820
225.333037,0.148894,-0.025350,0.162485
225.433037,0.061543,0.090711,0.049479
225.533037,0.005956,0.177451,0.115450
225.633037,-0.166303,0.022907,-0.241896
225.733037,-0.587177,-0.266635,0.098957
225.833037,0.153781,0.157293,0.016493
225.933037,0.007177,0.089489,-0.297483
226.033037,-0.545639,0.193333,-0.324971
226.133037,-0.093612,-0.423623,-0.064139
226.233037,0.504407,0.083381,0.163707
226.333037,-0.097277,-0.058336,0.183254
226.433037,0.037720,-0.162180,0.359789
226.533037,-0.152865,-0.237314,0.234565
226.633037,-0.018478,-0.275798,0.119726
226.733037,0.278394,0.183560,-0.378114
226.833037,0.029779,0.105982,-0.362843
226.933037,0.007177,0.010690,-0.208910
227.033037,-0.005039,-0.380252,-0.199136
227.133037,0.345587,-0.190890,0.035429
227.233037,-0.425302,-0.030848,0.254112
227.333037,0.078036,-0.007025,0.106898
227.433037,0.759741,-0.176229,0.180811
227.533037,0.472032,0.316113,0.351237
227.633037,0.406672,-0.254418,0.200969
227.733037,0.147061,0.220821,-0.089795
227.833037,-0.915202,0.148130,-0.166761
227.933037,0.043828,-0.275187,-0.152712
228.033037,-0.111327,0.005192,-0.254723
228.133037,0.191653,0.085213,-0.378725
228.233037,0.324818,-0.131638,0.071469
228.333037,-0.145534,-0.565950,0.216851
228.433037,-0.410031,-0.170732,0.328636
228.533037,1.457940,-0.038789,0.230289
228.633037,-0.276867,0.482264,-0.025045
228.733037,-0.672085,0.283128,-0.207077
228.833037,0.439657,0.309394,-0.177146
228.933037,0.599088,-0.032069,-0.201580
229.033037,0.435992,0.139579,-0.116672
229.133037,0.494023,0.082770,-0.196082
229.233037,-0.000764,-0.161569,0.159431
229.333037,0.788451,0.593438,-0.253502
229.433037,-0.018478,-0.071775,-0.211353
229.533037,-0.166914,-0.049784,0.103233
229.633037,0.285113,-0.366203,0.269994
229.733037,0.262512,0.211659,0.188752
229.833037,-0.444850,0.132248,0.097125
229.933037,-0.416751,-0.027183,-0.051311
230.033037,0.184934,0.004581,-0.051311
230.133037,-0.221890,0.045508,0.120337
230.233037,-0.374602,-0.085824,0.128278
230.333037,-0.037414,0.041843,-0.127667
230.433037,-0.062459,-0.111480,-0.013439
230.533037,0.035276,0.226319,-0.167372
230.633037,-0.023365,0.072996,-0.027488
230.733037,0.082312,-0.273965,-0.023212
230.833037,0.321764,0.164623,-0.235176
230.933037,-0.030084,0.184781,-0.321916
231.033037,0.268009,-0.096819,-0.218683
231.133037,0.720647,0.590384,-0.190584
231.233037,0.413391,-0.029015,0.084297
231.333037,-0.295803,-0.283128,0.351848
231.433037,0.005956,-0.205550,0.135608
231.533037,0.195929,0.032069,-0.002443
231.633037,0.161722,-0.130416,-0.117283
231.733037,0.499520,0.214102,-0.201580
231.833037,-0.533422,-0.242812,-0.073302
231.933037,0.297941,0.143855,0.145382
232.033037,0.078036,-0.057725,0.188752
232.133037,-0.588399,-0.173175,0.279768
232.233037,0.401785,0.140800,-0.061085
232.333037,0.236856,0.011912,-0.064750
232.433037,-0.727061,-0.078494,0.252891
232.533037,0.229526,0.007636,-0.069026
232.633037,0.639404,0.319168,-0.202801
232.733037,-0.235329,0.335050,0.108731
232.833037,1.498256,0.376587,-0.449584
232.933037,-1.269646,-0.387583,0.362843
233.033037,0.481195,0.310616,-0.296872
233.133037,0.873970,0.567783,-0.631616
233.233037,-0.141258,-0.261137,-0.060474
233.333037,0.390790,-0.043065,0.282822
233.433037,0.119573,0.705223,0.560758
233.533037,2.343668,0.603212,-0.728741
233.633037,-2.689255,0.160347,-0.395218
233.733037,0.553275,0.543349,-0.767224
233.833037,1.862321,-0.266024,-0.127667
233.933037,-1.282474,-0.104760,0.174702
234.033037,-0.446071,-0.024128,0.074523
234.133037,0.615581,0.204939,-0.213797
234.233037,-1.960514,-0.037567,0.373839
234.333037,0.231969,0.304507,0.181422
234.433037,0.508683,0.267857,-0.334744
234.533037,-0.639099,0.377198,-0.666434
234.633037,-0.163249,0.219600,-0.560147
234.733037,0.255181,0.115756,-0.378114
234.833037,-0.627493,0.195777,-0.599241
234.933037,-0.134539,-0.040010,-0.530215
235.033037,0.396287,0.014966,-0.252280
235.133037,-0.036193,0.218378,-0.579694
235.233037,-0.136983,0.443170,-0.852743
235.333037,-0.308020,0.402854,-0.508225
235.433037,0.739583,0.308783,-0.474628
235.533037,3.556200,1.046687,-0.696977
235.633037,0.654065,0.477988,-0.783106
235.733037,0.911231,1.157861,-0.860684
235.833037,1.554454,0.520136,-1.056308
235.933037,0.488525,0.604433,-0.999499
236.033037,-1.063027,-0.236092,-0.674375
236.133037,1.012632,-0.399800,-0.523496
236.233037,-2.287928,0.245866,-0.475239
236.333037,1.362648,-0.119421,-0.802042
236.433037,1.645470,-0.156682,-0.549152
236.533037,0.171495,-0.368035,-0.676208
236.633037,-0.655592,-0.504865,-1.030652
236.733037,-0.383154,1.039967,-0.662769
236.833037,0.047493,-0.512195,-0.082464
236.933037,-2.271435,0.625202,0.257778
237.033037,1.518414,-0.713164,0.125224
237.133037,-0.494328,0.014355,-0.207077
237.233037,-0.243881,0.012522,-0.290763
237.333037,-0.360553,-0.198220,0.080632
237.433037,-1.061805,-0.785244,0.866181
237.533037,1.109146,-0.646582,0.378725
237.633037,-0.474781,0.128583,-0.127056
237.733037,0.929557,0.045508,-0.227846
237.833037,1.193443,-0.035124,-0.246171
237.933037,-2.265938,-0.119421,0.448973
238.033037,0.518457,0.183560,0.408046
238.133037,-1.780925,0.485929,0.306034
238.233037,1.959445,0.473712,-0.202190
238.333037,1.781078,0.043676,-0.208299
238.433037,-1.396702,0.457219,0.120337
238.533037,0.671168,0.043676,0.277325
238.633037,1.283237,-0.170732,-0.069637
238.733037,-0.108884,0.581221,-0.573586
238.833037,0.806166,-0.351543,-0.237009
238.933037,-1.265981,-0.918409,-0.303591
239.033037,0.355971,-1.086392,0.250447
239.133037,2.862278,-0.351543,0.222348
239.233037,-0.756992,-0.332606,0.436145
239.333037,0.605808,-0.708277,0.021380
239.433037,-0.104608,0.355819,-0.191195
239.533037,0.510516,0.051006,0.029321
239.633037,0.754855,-0.247088,0.047035
239.733037,0.809220,-0.289847,-0.016493
239.833037,-0.276867,-0.148130,0.112396
239.933037,-0.022143,-0.639252,-0.036040
240.033037,1.443279,0.339326,-0.588857
240.133037,0.412780,0.264802,-0.498451
240.233037,-1.451679,0.136524,-0.127667
240.333037,0.641848,-0.720494,0.183865
240.433037,-0.143702,-0.547625,0.930931
240.533037,0.822659,-0.121253,0.387277
240.633037,-0.510821,0.061390,0.030542
240.733037,0.184934,0.539684,-0.033597
240.833037,0.429273,0.009468,0.156988
240.933037,0.224028,0.522580,0.013439
241.033037,-2.529213,0.076661,0.280990
241.133037,-1.402200,0.252585,-0.103844
241.233037,2.184848,-0.121253,-0.517388
241.333037,-0.775318,0.614818,-0.389110
241.433037,-0.112549,-0.067499,0.181422
241.533037,0.716982,-0.074218,-0.063528
241.633037,-1.169314,0.471880,-0.237620
241.733037,0.384070,-0.132248,-0.144160
241.833037,0.435992,0.180505,-0.215018
241.933037,-0.333064,-0.137135,-0.131943
242.033037,-0.876719,-0.078494,0.201580
242.133037,-0.116214,-0.322222,0.407435
242.233037,0.562438,0.835334,0.144160
242.333037,0.462870,-0.403465,0.147825
242.433037,-1.935470,0.257472,-0.058641
242.533037,0.555718,-0.029626,0.136219
242.633037,0.234413,0.487151,0.384223
242.733037,-1.438240,0.388804,0.230900
242.833037,-0.786313,0.273965,-0.237620
242.933037,-0.028863,0.622759,-0.227846
243.033037,0.151948,-0.123086,-0.254112
243.133037,-2.520050,0.551901,0.122169
243.233037,0.014508,0.385750,-0.448362
243.333037,1.159235,0.156682,-0.494175
243.433037,-0.137593,-0.449278,0.011606
243.533037,-0.750884,-0.341769,0.225403
243.633037,-0.068568,0.012522,0.259610
243.733037,0.848314,-0.388804,0.156988
243.833037,0.433549,-0.317946,0.139273
243.933037,-1.175423,-0.148130,0.060474
244.033037,-0.781426,0.387583,0.275492
244.133037,0.685829,0.035735,-0.116672
244.233037,1.732210,-0.295345,-0.285266
244.333037,1.269188,-0.118810,-0.191806
244.433037,0.352917,-0.352764,0.248004
244.533037,-0.566408,-0.788298,0.343907
244.633037,-0.979341,0.446835,-0.149047
244.733037,-2.974521,0.748593,-0.144160
244.833037,1.193443,0.778525,-0.052533
244.933037,0.337035,-0.308783,-0.058030
245.033037,0.519067,0.567172,0.062917
245.133037,0.355360,-0.167067,0.006108
245.233037,0.167830,0.119421,-0.337799
245.333037,-0.583512,-0.141411,-0.097125
245.433037,-0.596950,-0.289847,0.230900
245.533037,-0.504713,-0.133470,0.206466
245.633037,1.624701,-0.129194,-0.286487
245.733037,-1.620883,0.407741,-0.015882
245.833037,0.838541,-0.088878,-0.139273
245.933037,-1.280641,0.388804,0.120337
246.033037,-0.739889,0.215324,-0.005498
246.133037,1.265523,0.128583,0.153323
246.233037,-1.028819,-0.330163,0.596798
246.333037,0.070706,0.233649,0.124613
246.433037,0.490358,-0.569004,-0.174091
246.533037,-3.012393,-0.151796,-0.086740
246.633037,-0.505934,0.239758,-0.456303
246.733037,3.346069,-0.069331,-0.099568
246.833037,-1.444348,-0.321000,0.204023
246.933037,0.327872,-0.331995,-0.021380
247.033037,-0.542585,-0.789520,0.238841
247.133037,0.189821,-0.167067,0.245561
247.233037,-1.398535,0.430953,0.256556
247.333037,-0.013591,0.550068,-0.197915
247.433037,-0.274423,-0.297177,0.180200
247.533037,0.136066,-0.403465,0.397051
247.633037,-0.536477,-0.344823,0.371395
247.733037,-0.640321,-0.032680,0.177757
247.833037,-1.025154,-0.601379,-0.074523
247.933037,0.792116,-0.017409,-0.258999
248.033037,-0.863891,-0.173786,-0.224181
248.133037,-1.211005,-0.236703,0.295650
248.233037,0.635739,-0.303897,0.243117
248.333037,0.830600,0.113923,-0.061085
248.433037,0.227082,0.324665,-0.243117
248.533037,-1.439462,-0.143244,0.190584
248.633037,-0.788757,0.857935,-0.363454
248.733037,-0.126598,0.634365,-0.559536
248.833037,-1.508487,0.351543,-0.015882
248.933037,-0.717898,0.050395,0.215018
249.033037,-0.299468,-0.473101,0.387888
249.133037,1.726102,-0.109647,-0.301759
249.233037,0.523343,0.682011,-0.065361
249.333037,0.183712,0.259305,0.096514
249.433037,1.192832,-0.188446,0.055587
249.533037,-0.997666,0.158515,0.280379
249.633037,0.998583,0.138968,-0.287098
249.733037,-1.404643,-0.262970,-0.182643
249.833037,1.211768,-0.322833,-0.361011
249.933037,0.683385,-0.352153,-0.003054
250.033037,-1.496270,0.184781,0.177146
250.133037,-0.317793,-0.317335,0.172870
250.233037,0.100026,0.142022,-0.028710
250.333037,-0.014202,0.091322,0.067193
250.433037,-0.708736,0.065666,0.111174
250.533037,-0.140037,-0.291069,0.454470
250.633037,0.202649,-0.336271,0.259610
250.733037,-0.129652,-0.405908,0.179589
250.833037,-1.043480,0.058947,-0.415987
250.933037,0.246019,-0.107815,-0.219294
251.033037,-0.608557,-0.153628,-0.199136
251.133037,1.256971,0.390026,-0.094681
251.233037,2.252652,-0.289847,0.271216
251.333037,-1.551857,0.319779,0.376282
251.433037,-0.306798,-0.170732,-0.178367
251.533037,0.299773,0.088878,-0.486845
251.633037,-0.358720,-0.644749,0.329858
251.733037,-0.054518,0.236092,0.150268
251.833037,0.121406,0.076661,-0.020158
251.933037,0.097583,-0.007636,-0.149047
252.033037,1.270410,-0.168288,0.290152
252.133037,-0.049631,0.099874,0.471574
252.233037,-0.517540,0.013744,0.154544
252.333037,-0.300690,-0.152406,0.183865
252.433037,1.030347,0.396745,-0.618177
252.533037,-0.756992,0.174397,-0.452027
252.633037,0.175771,-0.104760,0.144771
252.733037,-0.728283,0.143855,0.008552
252.833037,1.219098,-0.877482,0.231511
252.933037,0.862364,-0.605044,-0.227846
253.033037,-1.992278,-0.324665,-0.004887
253.133037,1.974716,0.958725,0.246782
253.233037,-1.513374,-0.196998,0.507614
253.333037,0.217920,0.227541,0.172870
253.433037,1.252084,0.189668,-0.039094
253.533037,0.049937,0.634976,0.053144
253.633037,0.490968,0.418736,-0.425761
253.733037,1.361426,-0.331995,-0.456303
253.833037,-1.685022,-0.149963,-0.381169
253.933037,-1.064249,-0.294123,0.005498
254.033037,0.087198,-0.919631,0.162485
254.133037,1.290568,-0.200663,0.244339
254.233037,0.255792,0.302675,-0.062917
254.333037,0.286335,-0.203718,0.222959
254.433037,-0.534644,-0.181727,0.202801
254.533037,0.280837,0.445002,0.052533
254.633037,-0.015424,0.046119,-0.050089
254.733037,-0.984838,0.338104,-0.222348
254.833037,-0.697740,0.429120,-0.323749
254.933037,1.264912,0.084602,-0.314586
255.033037,-0.894433,-0.220821,0.042759
255.133037,-0.051464,-0.283739,-0.091016
255.233037,0.233191,-0.298399,-0.036040
255.333037,-1.869498,-0.003360,0.273660
255.433037,2.239824,0.433396,0.143549
255.533037,-0.371548,0.387583,0.214407
255.633037,-0.957961,-0.354597,0.080021
255.733037,-0.994612,0.455997,-0.356124
255.833037,3.600792,-0.297177,-0.382390
255.933037,-1.579346,-1.637987,0.525329
256.033037,0.864196,0.110869,0.411100
256.133037,3.020487,-0.482264,-0.255334
256.233037,-1.624548,0.314281,0.014660
256.333037,-0.738056,-0.455387,0.152101
256.433037,0.665060,0.274576,-0.297483
256.533037,0.404228,-0.168288,-0.226624
256.633037,0.428051,-0.228762,0.130721
256.733037,-0.538309,-0.340547,0.503338
256.833037,0.939941,-0.392469,0.512501
256.933037,0.426830,-0.248309,0.097125
257.033037,-1.809635,-0.144465,0.051922
257.133037,0.884965,0.189668,-0.569310
257.233037,-0.372770,-0.680789,-0.123391
257.333037,-0.564576,-0.468214,0.212575
257.433037,0.822048,-0.551290,0.335966
257.533037,-1.945243,0.283739,-0.039094
257.633037,0.131179,0.132248,-0.262053
257.733037,0.260679,0.168899,-0.298704
257.833037,-0.807693,0.510363,-0.221127
257.933037,0.881911,-0.236092,0.009774
258.033037,-0.515097,0.299621,-0.017715
258.133037,-1.264759,-0.052838,0.166150
258.233037,0.753633,-0.081548,0.264497
258.333037,-1.000110,-0.502422,0.034207
258.433037,0.122628,0.073607,0.191195
258.533037,0.139120,-0.068109,0.161264
258.633037,-3.946990,0.490205,0.295039
258.733037,2.117044,-0.423623,-0.036040
258.833037,0.767071,0.857935,-0.152712
258.933037,-0.098499,0.239758,-0.237620
259.033037,0.020616,-0.303897,0.059252
259.133037,0.599088,-0.405297,0.482569
259.233037,-0.482111,-0.113923,0.351237
259.333037,-0.727061,-0.225708,-0.068415
259.433037,0.615581,0.020463,-0.258999
259.533037,0.591758,-0.088878,0.278546
259.633037,0.198373,-0.046730,-0.068415
259.733037,0.754244,0.382696,0.046424
259.833037,-0.141258,0.368035,-0.116061
259.933037,2.331451,-0.061390,-0.369563
260.033037,-1.297134,0.057725,0.210742
260.133037,1.017519,-0.048562,-0.061085
260.233037,-0.031917,-0.065666,-0.519831
260.333037,0.450042,0.399189,-0.628562
260.433037,0.879467,-0.022296,-0.069637
260.533037,-0.480889,-0.480431,0.509447
260.633037,0.164165,-0.490816,0.486234
260.733037,-0.366661,-0.516471,-0.035429
260.833037,-0.252433,0.540905,-0.337799
260.933037,1.406628,-0.855492,0.225403
261.033037,0.419499,-0.241590,0.057420
261.133037,-2.001441,0.339936,-0.145992
261.233037,2.264869,-1.007593,0.284044
261.333037,0.175771,-0.774249,0.541211
261.433037,0.544723,-0.057725,0.347572
261.533037,0.498910,0.161569,0.131943
261.633037,0.153170,0.232427,0.500895
261.733037,-1.680746,-0.261748,-0.157599
261.833037,0.192264,0.186003,-0.474017
261.933037,-0.779594,0.375366,-0.588857
262.033037,-1.339893,0.079105,-0.152712
262.133037,2.200730,-0.605655,0.116672
262.233037,0.621079,-0.295956,-0.284655
262.333037,-0.231664,0.026572,0.130110
262.433037,-0.941468,-0.165234,0.297483
262.533037,0.109800,0.131027,-0.269384
262.633037,-0.878551,0.095598,0.150268
262.733037,0.186156,-0.300231,0.742790
262.833037,-0.553580,-0.554344,1.031721
262.933037,1.316834,-0.594049,0.463633
263.033037,-1.267813,-0.648414,1.167940
263.133037,1.199551,-0.678346,1.493522
263.233037,-0.373991,-0.028404,0.759894
263.333037,0.756687,0.434007,-0.204634
263.433037,-1.034928,-0.052227,0.820979
263.533037,0.773180,0.019853,1.084865
263.633037,2.055348,-0.413238,0.590689
263.733037,-0.602448,0.186614,0.783106
263.833037,0.506851,0.334439,0.475850
263.933037,0.745081,-0.114534,0.459968
264.033037,-2.934205,0.381474,0.123391
264.133037,0.205092,-0.451722,-0.298704
264.233037,1.765196,0.289847,0.590078
264.333037,-2.021599,-0.816397,0.874122
264.433037,-0.762490,-0.055893,0.994459
264.533037,0.900847,-0.218989,0.510668
264.633037,-0.099721,0.446224,-0.012217
264.733037,-0.182185,0.231206,-0.214407
264.833037,0.211200,0.226319,-0.156988
264.933037,0.260679,-0.011301,0.086740
265.033037,-0.075287,-0.036956,0.216851
265.133037,-0.093001,-0.169510,-0.031764
265.233037,0.057878,-0.156682,0.016493
265.333037,0.460426,-0.134081,0.045814
265.433037,0.229526,-0.051617,0.084297
265.533037,-0.176077,-0.206161,0.378114
265.633037,0.169663,-0.061390,0.513723
265.733037,0.646124,0.360705,0.295039
265.833037,-0.249378,0.195166,0.196082
265.933037,0.114076,0.170121,0.165540
266.033037,-0.156530,0.029015,-0.053144
266.133037,-0.210284,0.324054,-0.442864
266.233037,0.262512,0.463328,-0.191195
266.333037,0.288778,0.097430,-0.367730
266.433037,-0.595118,-0.136524,0.056809
266.533037,0.306493,-0.253807,0.153934
266.633037,0.246630,-0.216545,0.178978
266.733037,0.195929,-0.695450,0.036651
266.833037,-5.834507,1.298356,0.486234
266.933037,1.671736,-1.611110,0.965139
267.033037,1.448166,0.749204,-0.169816
267.133037,-7.252437,0.779136,0.088573
267.233037,2.109103,0.432785,-0.704918
267.333037,-0.668420,-0.195166,0.428204
267.433037,0.620468,0.209826,-0.290763
267.533037,-0.611611,0.284960,-0.298704
267.633037,-2.954974,0.007025,0.295039
267.733037,4.920986,-0.925739,-0.329858
267.833037,-1.446181,0.355208,0.221127
267.933037,4.271044,-0.888477,0.428815
268.033037,-1.745496,0.140800,0.613291
268.133037,-0.367272,0.287404,0.203412
268.233037,-1.423580,0.369868,-0.172870
268.333037,0.745081,-0.044286,-0.397051
268.433037,0.420721,0.520136,-0.205856
268.533037,0.351695,-0.468825,0.289542
268.633037,-0.242048,-0.086435,0.596798
268.733037,-0.298857,-0.104149,0.172259
268.833037,0.321764,0.707056,-0.440421
268.933037,-0.632380,0.386361,-0.216851
269.033037,0.150116,-0.060779,0.039705
269.133037,-1.053864,-0.102928,0.259610
269.233037,0.601532,0.066888,0.088573
269.333037,0.327872,0.015577,-0.219905
269.433037,-2.542041,1.014312,-0.529605
269.533037,0.757298,0.317946,-0.488678
269.633037,2.256928,-0.985602,0.282822
269.733037,1.405407,0.015577,0.154544
269.833037,2.142699,0.933069,-0.174702
269.933037,-2.975132,-0.959336,0.492343
270.033037,-0.311074,0.694228,0.301759
270.133037,1.581942,0.157904,-0.631005
270.233037,0.775012,-0.053449,-0.394607
270.333037,-0.520595,0.390026,-0.505171
270.433037,0.872137,-0.017409,-0.367730
270.533037,0.200816,0.137746,-0.300537
270.633037,-0.129652,0.107815,0.004887
270.733037,-0.214560,-0.116366,-0.055587
270.833037,-1.020268,0.299621,-0.455692
270.933037,0.260679,0.545792,-0.532659
271.033037,-0.277477,0.173175,-0.291985
271.133037,2.190346,0.831058,-0.788604
271.233037,-2.413763,0.493259,-0.869236
271.333037,-1.036150,0.958725,-0.573586
271.433037,-0.350779,-0.575724,-0.254723
271.533037,0.365745,-0.102928,-0.321916
271.633037,1.466492,-0.383307,-0.526550
271.733037,-0.022143,-0.392469,-0.364065
271.833037,-0.956740,-0.293512,-0.149658
271.933037,1.179393,-0.230595,-0.178978
272.033037,-1.391205,0.385139,-0.371395
272.133037,0.271063,0.746150,-0.671932
272.233037,-0.742943,-0.258083,-0.277325
272.333037,-0.511432,-0.319168,-0.200358
272.433037,-1.225054,-0.068720,-0.297483
272.533037,1.195275,0.460884,-0.340853
272.633037,2.183626,0.349099,-0.936582
272.733037,-1.939745,0.525634,-0.711026
272.833037,0.906345,0.370479,-0.717746
272.933037,1.106092,-0.346045,-0.535102
273.033037,-1.800472,-0.393080,0.078799
273.133037,0.135455,-0.005803,-0.263886
273.233037,0.249073,-0.022907,-0.669489
273.333037,-0.300079,0.218989,-0.662769
273.433037,1.699224,0.703391,-0.627340
273.533037,-0.762490,-0.421790,-0.262664
273.633037,0.211200,-0.168288,-0.081243
273.733037,0.805555,-0.322222,-0.348183
273.833037,-0.248768,-0.300842,-0.164318
273.933037,1.517192,-0.848161,0.182032
274.033037,0.492801,-0.614207,0.718967
274.133037,0.362691,-0.268467,0.246171
274.233037,0.990642,-0.533575,0.038483
274.333037,0.787840,0.237314,0.031764
274.433037,0.282059,0.203718,-0.467909
274.533037,0.336424,-0.344212,-0.536935
274.633037,0.265566,-0.201274,-0.238230
274.733037,-0.622606,0.007636,-0.054976
274.833037,0.279615,-0.584275,0.565645
274.933037,-1.934859,0.211048,0.361622
275.033037,1.828113,0.179895,-0.245561
275.133037,-1.137550,-0.041232,-0.251669
275.233037,-0.220058,-0.000305,0.025045
275.333037,0.316877,-0.743707,0.472796
275.433037,-1.531700,0.052227,-0.408046
275.533037,0.274729,-0.160347,-0.031764
275.633037,-0.005650,-0.401632,0.309700
275.733037,-0.297635,-0.381474,-0.083686
275.833037,-0.272591,0.107204,0.078188
275.933037,0.683996,-0.193333,0.186919
276.033037,0.253960,0.054060,-0.095292
276.133037,0.398731,-0.299010,-0.001833
276.233037,-0.193791,0.510363,-0.140495
276.333037,-0.118657,0.083381,-0.470963
276.433037,-0.097888,-0.020463,-0.077578
276.533037,-0.071011,-0.330163,0.252280
276.633037,-0.718509,0.594660,-0.248004
276.733037,0.234413,0.578778,-0.476461
276.833037,-0.476003,-0.272132,0.122780
276.933037,-0.624439,-0.425455,0.185698
277.033037,0.055434,-0.264802,0.432480
277.133037,0.461037,0.333828,0.326192
277.233037,0.771347,-0.124918,0.091016
277.333037,-0.653148,-0.015577,-0.240674
277.433037,1.420678,-0.192111,0.110563
277.533037,0.656508,0.640473,0.045814
277.633037,-1.088072,0.579999,-0.048868
277.733037,-0.320848,0.412627,-0.230900
277.833037,0.140342,0.043065,-0.275492
277.933037,-0.886492,-0.677124,0.139884
278.033037,-0.913980,0.283739,0.285266
278.133037,-1.462674,0.442559,0.131943
278.233037,-0.628715,0.413849,-0.021380
278.333037,-0.443017,-0.173175,-0.293818
278.433037,-0.716066,0.333828,-0.194860
278.533037,-0.410642,0.190890,-0.187530
278.633037,-0.449736,0.162180,0.161875
278.733037,0.146451,-0.137135,0.040316
278.833037,0.662617,-0.316113,0.154544
278.933037,-1.531700,-0.120642,0.612069
279.033037,-0.110716,0.118199,0.156377
279.133037,0.162944,0.123086,-0.284044
279.233037,-0.397814,0.309394,-0.325582
279.333037,0.633296,-0.228762,-0.117283
279.433037,0.539225,-0.328330,0.214407
279.533037,-0.818688,0.143855,0.065972
279.633037,2.208060,-0.072996,-0.267551
279.733037,-2.299535,0.109647,0.227846
279.833037,-2.498671,-0.429731,0.313975
279.933037,2.165301,-0.172564,0.068415
280.033037,0.983311,-0.094376,-0.269384
280.133037,-1.198788,-0.175619,0.155155
280.233037,0.015729,-0.231206,0.010384
280.333037,-0.217003,-0.347878,0.419652
280.433037,-0.650705,-0.020463,0.210131
280.533037,0.073760,0.131638,-0.215018
280.633037,0.187377,0.109036,-0.338409
280.733037,0.147061,-0.423012,-0.169205
280.833037,0.445766,-0.341158,0.047646
280.933037,-0.674528,-0.049784,0.064139
281.033037,1.399298,-0.680178,0.185087
281.133037,1.521468,-0.055893,0.147214
281.233037,-0.830294,-0.225097,0.268162
281.333037,0.172106,0.245255,-0.290152
281.433037,-1.324011,0.225097,-0.249226
281.533037,1.098151,0.043676,-0.026266
281.633037,0.555718,-0.721716,0.073302
281.733037,-1.324622,-0.178062,0.215018
281.833037,0.919783,-0.192111,0.087962
281.933037,-0.786313,0.228151,0.050089
282.033037,-0.482722,-0.331385,0.276714
282.133037,-0.621995,-0.085824,0.230289
282.233037,1.198941,-0.382696,-0.203412
282.333037,-0.493106,0.211048,-0.119115
282.433037,-0.166303,0.349099,-0.260832
282.533037,-0.103386,-0.104149,0.135608
282.633037,0.272285,-0.365592,0.157599
282.733037,-0.461953,-0.032069,0.172259
282.833037,0.356582,0.005803,0.136830
282.933037,-0.097277,0.211659,0.163707
283.033037,-2.133995,-0.072385,0.248615
283.133037,1.170231,0.506698,-0.263886
283.233037,0.599088,0.154239,-0.255334
283.333037,0.465924,-0.369257,-0.156377
283.433037,-0.115603,-0.737598,0.115450
283.533037,1.382805,-0.096208,-0.155766
283.633037,-1.914090,0.707667,0.088573
283.733037,0.506240,0.064444,-0.041538
283.833037,0.140342,0.294734,-0.240063
283.933037,-0.435687,-0.012522,-0.181422
284.033037,0.854423,-0.273354,0.083075
284.133037,0.297941,0.243423,0.260221
284.233037,-0.115603,-0.021685,0.081854
284.333037,-1.089904,-0.314892,-0.098957
284.433037,0.041996,0.450500,-0.282211
284.533037,-0.346503,0.221432,-0.219905
284.633037,0.342533,0.199442,0.119115
284.733037,-0.099721,-0.626424,0.280990
284.833037,1.234370,0.133470,-0.135608
284.933037,-0.168136,-0.556787,0.130110
285.033037,0.846482,-0.043676,0.101401
285.133037,-0.121711,-0.015577,0.113007
285.233037,0.899014,0.747982,0.226624
285.333037,0.682775,-0.032680,-0.045814
285.433037,-1.060584,0.176840,-0.010995
285.533037,-0.604281,-0.225708,0.000000
285.633037,-0.934138,0.209215,-0.078188
285.733037,1.985712,0.492037,0.089184
285.833037,-1.934859,0.078494,0.271216
285.933037,-1.297134,0.122475,0.120948
286.033037,2.467670,-0.155461,-0.063528
286.133037,-1.231773,0.339936,-0.100179
286.233037,-1.519483,0.154239,-0.106287
286.333037,3.082183,0.278852,-0.516777
286.433037,-1.161984,-0.019853,-0.160653
286.533037,1.085323,-0.369868,0.210131
286.633037,-0.319626,-0.572058,0.175924
286.733037,-0.406366,0.525023,0.008552
286.833037,0.326651,0.298399,-0.251669
286.933037,1.730378,-0.102928,-0.404381
287.033037,-2.214016,-0.285571,-0.110563
287.133037,0.330927,-0.277019,-0.307256
287.233037,1.063332,-0.220821,0.180200
287.333037,-0.070400,-0.193944,0.001222
287.433037,-0.649483,0.434618,-0.202801
287.533037,-0.476614,-0.573280,-0.037873
287.633037,1.485428,0.052227,0.100790
287.733037,-1.382042,0.076661,0.046424
287.833037,0.636961,-0.053449,0.057420
287.933037,0.255792,0.238536,0.127667
288.033037,-1.228108,0.198220,0.105066
288.133037,-0.275645,0.181727,-0.078188
288.233037,1.938066,-0.066277,0.088573
288.333037,-0.762490,-0.064444,0.252891
288.433037,-0.146756,-0.141411,-0.409268
288.533037,1.057224,-0.049784,-0.141717
288.633037,-0.027641,-0.070553,0.007330
288.733037,-0.177298,0.058336,-0.103233
288.833037,-0.620774,-0.379642,0.246782
288.933037,-0.808914,-0.275798,0.636503
289.033037,1.201384,-0.023518,0.021991
289.133037,-1.005607,-0.121253,0.109953
289.233037,-0.454623,0.776692,-0.366508
289.333037,-0.587177,0.002138,0.123391
289.433037,-0.906039,-0.289847,0.142327
289.533037,-1.312405,0.154850,0.029321
289.633037,-0.614054,-0.077272,0.033597
289.733037,-0.239605,-0.303286,0.449584
289.833037,1.008356,0.184170,0.194860
289.933037,0.327261,-0.278852,-0.076356
290.033037,-0.661700,0.205550,-0.091016
290.133037,-2.167592,0.414460,-0.289542
290.233037,0.485471,0.499368,0.100179
290.333037,1.812231,-0.247699,0.003665
290.433037,-0.254876,0.014966,-0.069026
290.533037,-0.766155,-0.297177,0.130721
290.633037,1.211768,-0.255029,0.179589
290.733037,-1.917755,-1.166413,0.274270
290.833037,1.275907,0.032680,-0.062917
290.933037,0.230748,-0.364981,0.065361
291.033037,0.088420,0.060168,0.155155
291.133037,-1.553690,1.021031,0.021991
291.233037,1.287513,0.110258,-0.171037
291.333037,0.888019,0.113312,-0.370784
291.433037,-1.121057,0.215935,-0.298093
291.533037,-0.866945,0.498146,-0.014049
291.633037,2.991777,-0.179895,-0.034818
291.733037,-0.683691,0.125529,0.141106
291.833037,0.332759,0.006414,-0.056198
291.933037,-2.805927,0.339326,0.131943
292.033037,1.178172,0.512806,-0.185087
292.133037,-1.783369,0.227541,-0.092849
292.233037,0.318710,0.901305,-0.102622
292.333037,-0.154697,0.128583,-0.236398
292.433037,-1.330120,-0.802959,0.133776
292.533037,0.072538,0.120031,-0.050089
292.633037,1.087155,-0.038789,-0.306645
292.733037,-0.140648,0.195777,-0.050089
292.833037,0.969262,-0.352153,0.476461
292.933037,-1.033706,-0.039400,0.016493
293.033037,-1.155265,0.205550,-0.164929
293.133037,0.042607,0.005192,0.233344
293.233037,0.531284,-0.339326,0.274270
293.333037,-0.525481,0.564117,0.042759
293.433037,-0.574960,-0.149352,-0.081854
293.533037,-1.325844,0.296566,-0.193028
293.633037,0.638183,-0.085213,-0.147825
293.733037,0.751189,-0.956892,0.080632
293.833037,0.035276,-0.080937,0.011606
293.933037,1.727323,-0.536629,-0.041538
294.033037,-0.830905,-0.369868,0.500895
294.133037,1.581942,-0.804791,0.225403
294.233037,-2.133384,-0.130416,0.271216
294.333037,2.288081,-0.200663,0.208299
294.433037,0.562438,-0.069942,0.134386
294.533037,1.173896,0.014966,-0.051922
294.633037,2.522036,0.385750,-0.347572
294.733037,-2.855406,-0.538462,-0.111785
294.833037,-1.468782,0.111480,-0.036040
294.933037,1.739540,-0.228151,-0.091627
295.033037,-0.426524,0.671627,0.021380
295.133037,0.534949,-0.082159,-0.041538
295.233037,-0.625660,0.183560,-0.027488
295.333037,1.099372,-0.157904,-0.160042
295.433037,-2.469961,-0.082159,0.081243
295.533037,0.286335,-0.032069,-0.177146
295.633037,0.615581,-0.083991,0.401327
295.733037,-1.162595,0.212269,0.648720
295.833037,-0.326345,0.371090,-0.333523
295.933037,0.040774,0.149963,-0.283433
296.033037,-1.694796,-0.258083,0.036651
296.133037,4.142003,-0.760199,0.020769
296.233037,-1.754048,0.273965,0.050700
296.333037,-1.320957,0.172564,-0.175313
296.433037,-0.292749,0.102928,-0.511890
296.533037,0.198373,0.382085,-0.114839
296.633037,-0.729504,-0.333828,-0.097125
296.733037,4.130396,-0.350932,-0.350626
296.833037,-0.545639,-1.217724,0.174091
296.933037,-0.811358,-0.545792,0.240063
297.033037,0.903290,0.294734,-0.014049
297.133037,-1.466339,0.079105,-0.028710
297.233037,1.261858,0.005803,-0.241896
297.333037,-1.297745,-0.535408,0.383001
297.433037,-2.814479,-0.260526,0.230289
297.533037,1.983879,-0.558620,-0.091627
297.633037,2.074895,-0.298399,-0.057420
297.733037,-4.957331,0.110869,0.739736
297.833037,1.187945,-0.693006,0.255334
297.933037,1.081658,0.240979,-0.004276
298.033037,-4.582881,0.880536,0.139273
298.133037,0.753633,1.049130,-0.360400
298.233037,1.558119,0.477988,-0.296261
298.333037,-1.684411,-0.258083,0.001833
298.433037,1.372421,0.269689,-0.216851
298.533037,-2.678260,-0.259305,0.261443
298.633037,-0.458288,-0.902527,0.559536
298.733037,0.735918,-0.008246,0.030542
298.833037,0.125071,-0.044286,0.053755
298.933037,0.013286,-0.081548,-0.113618
299.033037,-1.053864,-0.133470,0.094070
299.133037,-1.586676,0.080937,0.122169
299.233037,3.418759,-0.129805,0.082464
299.333037,-2.343515,0.257472,-0.372617
299.433037,0.326040,0.864654,-0.205245
299.533037,-1.802916,0.737598,-0.145992
299.633037,0.690105,-0.346045,0.025656
299.733037,-1.988613,0.399189,0.024434
299.833037,-0.127209,0.201274,-0.328636
299.933037,-0.086282,-0.802348,0.324360
300.033037,1.875148,-0.168899,0.092238
300.133037,-0.745997,0.222043,0.028710
300.233037,0.914896,-0.146909,-0.176535
300.333037,-1.711289,-0.407741,0.023212
300.433037,2.464005,-0.143244,-0.112396
300.533037,0.235023,-0.397356,0.167372
300.633037,-0.041079,-0.817008,0.125835
300.733037,1.861099,0.500589,-0.011606
300.833037,-2.360008,0.257472,0.028099
300.933037,0.087198,0.022296,0.026266
301.033037,0.775623,-0.046730,0.248004
301.133037,-2.584189,-0.087657,0.386055
301.233037,1.621036,-0.818841,0.046424
301.333037,0.409726,-0.177451,0.112396
301.433037,-0.843122,-0.129805,0.301148
301.533037,0.748135,0.102317,0.015271
301.633037,1.308893,-0.521358,0.306645
301.733037,-0.666587,-0.102317,-0.258999
301.833037,0.731031,0.130416,-0.205245
301.933037,1.382195,-0.509752,0.000611
302.033037,-0.043523,0.352764,0.339631
302.133037,-0.038025,-0.132859,0.285266
302.233037,1.499477,-0.404686,0.082464
302.333037,-0.133928,-0.690563,0.229679
302.433037,-2.534100,1.006982,-0.410489
302.533037,4.138948,-0.314892,0.701864
302.633037,-1.931804,0.116977,0.203412
302.733037,1.479319,-0.477377,-0.269994
302.833037,-0.996445,0.264802,-0.169816
302.933037,-1.224443,0.850605,0.092849
303.033037,3.468238,-0.603212,0.400105
303.133037,-4.979932,1.134038,-0.472796
303.233037,2.867775,-0.828614,0.065972
303.333037,-5.041628,1.432131,-0.375060
303.433037,1.148851,-1.075397,0.376282
303.533037,2.168355,-0.649025,1.007287
303.633037,-0.274423,-0.842664,0.654217
303.733037,-1.725949,0.527467,0.385445
303.833037,0.814107,-0.135303,0.780052
303.933037,1.370589,1.425412,-0.003665
304.033037,0.843427,-0.288625,0.042148
304.133037,-0.108273,0.352764,0.178367
304.233037,0.253960,-0.832890,1.076313
304.333037,-0.558467,-0.781579,0.803264
304.433037,-0.644597,0.693617,0.493565
304.533037,1.534907,0.504865,-0.162485
304.633037,-0.840068,-0.330163,0.324971
304.733037,0.847092,-0.452943,0.230289
304.833037,-0.449736,-0.149352,-0.105677
304.933037,-0.436909,-0.550068,0.360400
305.033037,-0.223723,-0.811511,0.712248
305.133037,0.875191,-0.464549,0.668267
305.233037,-0.069178,-0.025350,0.336577
305.333037,-0.036804,-0.366814,0.365898
305.433037,-0.223112,-0.055282,0.705529
305.533037,0.940552,-0.296566,0.748899
305.633037,-0.112549,0.107815,0.302369
305.733037,0.586261,0.108425,0.377504
305.833037,0.807387,-0.160347,0.417820
305.933037,-0.364829,-0.309394,0.948035
306.033037,1.398687,-0.266635,0.412933
306.133037,2.083447,-0.664296,-0.007941
306.233037,-1.633100,-0.225708,0.796545
306.333037,0.841595,0.002749,0.567477
306.433037,0.210590,0.233038,0.098957
