Time (s),Linear Acceleration x (m/s^2),Linear Acceleration y (m/s^2),Linear Acceleration z (m/s^2)
0.170110,-0.002276,-0.000027,0.045690
0.270110,-0.098997,-0.047971,0.128934
0.370110,-0.060824,-0.264996,0.134976
0.470110,0.622212,-0.328957,0.154736
0.570110,-2.209986,0.016956,-0.234808
0.670110,-1.724108,0.282185,-0.370127
0.770110,0.773208,0.685485,0.150285
0.870110,-1.199757,0.047932,0.235895
0.970110,-1.239783,1.464573,-0.513771
1.070110,-1.512676,1.605606,-0.565197
1.170110,-0.497279,1.059012,0.092762
1.270110,-0.852860,2.020491,-0.383806
1.370110,-0.932843,0.221821,0.430837
1.470110,-0.554776,1.049763,0.214644
1.570110,0.049150,1.843723,-0.418403
1.670110,2.055254,0.688372,0.113534
1.770110,-1.792546,-3.206407,3.478858
1.870110,3.468718,-0.251581,0.063993
1.970110,-0.546375,2.711185,-2.296874
2.070110,3.282424,0.795029,-0.961740
2.170110,-0.924883,-0.542205,-0.147470
2.270110,-4.290004,0.834783,-1.125831
2.370110,5.770493,-0.669377,1.370934
2.470110,-1.564139,-0.803362,0.470416
2.570110,-3.608387,-2.637492,0.345588
2.670110,-0.146655,-0.094066,-0.570566
2.770110,2.218762,-1.032470,0.398094
2.870110,-1.792895,-0.134522,-1.783630
2.970110,-1.413144,1.637837,0.183569
3.070110,-0.070871,0.515151,-0.211137
3.170110,3.448594,1.462129,-1.846446
3.270110,-0.473228,-0.174000,-0.298788
3.370110,-0.627546,0.936201,-0.472882
3.470110,0.305813,-0.867555,0.275034
3.570110,-0.711154,2.819854,-1.272411
3.670110,1.500371,-0.303517,0.654729
3.770110,1.965972,1.382962,0.737610
3.870110,2.344650,2.294128,-1.156568
3.970110,-0.450629,-2.226194,1.070688
4.070110,-1.280934,2.903434,-6.514817
4.170110,2.884967,0.256945,0.483124
4.270110,-0.976129,-1.119859,-1.281920
4.370110,-0.456338,-1.963288,1.431211
4.470110,1.216542,3.342545,-3.135131
4.570110,2.029790,0.086265,-0.674001
4.670110,-1.897551,0.289296,-1.326631
4.770110,2.520101,-1.423385,1.395483
4.870110,1.746971,0.606347,-0.061241
4.970110,1.111246,2.438427,-3.510227
5.070110,-0.253957,-2.297148,2.637625
5.170110,-2.368255,-1.617622,2.029598
5.270110,1.574096,1.629497,-3.065906
5.370110,-2.584893,-3.359273,2.296769
5.470110,2.180105,-2.503583,3.211357
5.570110,0.540817,-1.171331,-0.538636
5.670110,2.688162,-0.987809,-0.113564
5.770110,3.664302,-3.093189,6.053846
5.870110,-3.166430,3.637928,-6.772869
5.970110,-2.226928,-3.004053,3.026939
6.070110,0.543237,4.685256,-8.773657
6.170110,1.069333,0.769659,-2.181304
6.270110,1.493253,0.335990,-2.593906
6.370110,0.746952,-3.598326,2.076564
6.470110,1.281918,-3.481232,2.975938
6.570110,2.074615,-3.332970,3.480227
6.670110,1.629974,-0.161336,1.939479
6.770110,-1.208684,1.420609,0.509614
6.870110,-0.788042,1.416766,-5.035636
6.970110,-1.292459,-2.648892,4.376245
7.070110,0.761006,-1.706037,-0.179779
7.170110,-0.707258,-2.709887,3.965924
7.270110,0.536346,1.873965,-3.859252
7.370110,0.074108,-4.489909,4.164835
7.470110,-0.929900,-0.269135,-1.455318
7.570110,-0.470047,-5.193710,4.764245
7.670110,1.988532,3.108192,-0.142308
7.770110,0.961617,-3.350917,4.623413
7.870110,-2.231900,3.669780,-6.586454
7.970110,-1.843819,0.629766,-1.612920
8.070110,0.895512,-0.729621,0.998062
8.170110,2.531661,-2.954231,4.585573
8.270110,-1.713242,-0.744477,0.928774
8.370110,-3.711851,2.893377,-2.574557
8.470110,0.784340,-6.615302,7.363604
8.570110,1.607174,1.430652,-2.551510
8.670110,0.502066,-1.644970,1.026394
8.770110,-1.358798,-0.450579,0.197445
8.870110,-0.200150,0.267350,-2.785568
8.970110,-0.649327,-0.441491,0.967383
9.070110,-1.872451,-3.561143,3.012202
9.170110,1.166289,-3.208501,1.576435
9.270110,1.131339,-1.162449,-0.864079
9.370110,0.537708,-0.335371,-1.444357
9.470110,0.822790,-2.175615,2.970737
9.570110,2.696931,-4.272983,6.230690
9.670110,0.878061,-0.701631,-0.865087
9.770110,3.081930,-2.755123,4.149634
9.870110,0.623429,-0.761106,-0.400583
9.970110,1.840102,-3.812159,3.684457
10.070110,0.097941,-1.409989,1.136802
10.170110,-3.483440,1.178799,-2.672563
10.270110,0.160992,-5.949480,5.950400
10.370110,1.347364,-1.482569,1.221772
10.470110,-0.846915,-1.426451,-1.332960
10.570110,-0.545457,-1.453444,0.099777
10.670110,1.488840,-0.627729,0.239442
10.770110,0.916487,-1.710406,1.351786
10.870110,1.278143,-0.803912,2.710353
10.970110,3.500430,6.721963,-11.451642
11.070110,-2.743409,-6.584513,7.041157
11.170110,-0.243548,2.843726,-4.245615
11.270110,0.842518,-5.291990,1.527103
11.370110,2.353340,5.468113,-4.665455
11.470110,1.796836,-2.554436,3.374009
11.570110,-0.069938,5.496348,-4.697519
11.670110,-0.452118,-1.421670,-0.333534
11.770110,0.284884,-0.030956,-2.255560
11.870110,-0.996675,4.108937,-5.151254
11.970110,-2.228109,-2.957157,0.662381
12.070110,-0.854076,-0.675466,-1.825277
12.170110,-0.214326,-2.722639,1.636261
12.270110,0.398348,0.177847,-1.034070
12.370110,1.961319,-1.278376,1.499436
12.470110,0.930705,1.423585,-1.137086
12.570110,-0.864900,-0.752702,0.600541
12.670110,1.400738,0.309549,-1.347810
12.770110,-0.515105,-0.121347,-2.039719
12.870110,0.679075,1.246504,3.293368
12.970110,-2.733043,2.921033,-3.811083
13.070110,-0.999876,-1.949455,-0.129465
13.170110,-0.173374,-0.720029,0.351266
13.270110,-0.276560,-4.232110,3.056396
13.370110,1.194581,0.135107,-1.221004
13.470110,2.394543,-5.494351,5.341870
13.570110,-1.240135,3.809673,-7.887185
13.670110,-0.104337,-3.084584,2.517260
13.770110,1.769108,-7.297352,10.516649
13.870110,0.124323,-0.561635,-3.176429
13.970110,-2.594330,6.691870,-9.104630
14.070110,-0.012962,-0.271992,-5.674534
14.170110,0.143281,3.843259,-3.433181
14.270110,-2.993281,-5.648077,7.139822
14.370110,-1.348866,3.898404,-7.597490
14.470110,1.351166,12.285288,-15.729802
14.570110,1.171425,-10.186852,11.170754
14.670110,-0.888890,-0.843611,-1.637607
14.770110,-1.814096,-1.718270,1.670935
14.870110,-2.495641,2.783751,-6.193633
14.970110,1.371876,-3.289057,1.762626
15.070110,1.848285,4.976747,-6.354035
15.170110,0.395170,1.908630,0.468491
15.270110,-2.341921,-5.944534,6.733003
15.370110,-7.423347,2.564322,-8.629526
15.470110,-2.136177,-3.226344,-2.533424
15.570110,6.405622,21.665422,-40.426708
15.670110,-1.846064,-14.207909,16.408859
15.770110,-0.646943,5.300303,-4.411082
15.870110,-1.924398,2.631750,-32.100800
15.970110,4.034765,-5.815477,9.348250
16.070110,-1.772359,-0.824084,4.742525
16.170110,1.252524,-0.128720,-3.884361
16.270110,-4.099432,2.699867,-5.966795
16.370110,-2.354031,-6.591928,8.051315
16.470110,-0.914637,0.005106,0.596041
16.570110,0.309447,4.067311,-4.640133
16.670110,0.706041,5.408180,-6.564662
16.770110,3.290389,1.752843,1.775311
16.870110,1.518081,1.467642,-4.544831
16.970110,-0.376105,3.885518,-9.053828
17.070110,1.223543,-0.004741,0.071119
17.170110,2.520483,-3.207940,2.446785
17.270110,-2.937537,-5.376732,4.840752
17.370110,-2.456877,2.603097,-5.460318
17.470110,2.552152,-4.828340,4.206154
17.570110,-0.333314,-7.895977,9.476533
17.670110,-0.686051,1.137291,-2.567285
17.770110,0.101771,0.973878,-3.786441
17.870110,2.564146,16.571934,-21.203300
17.970110,2.980608,6.539427,0.855197
18.070110,-0.705693,1.264382,-4.426366
18.170110,2.068087,0.994095,-3.957649
18.270110,-0.545159,2.079117,-1.167466
18.370110,-4.635798,-0.438370,0.822439
18.470110,2.693428,-5.381130,4.545925
18.570110,1.969098,2.072918,-3.764273
18.670110,-0.110595,-0.473952,1.362480
18.770110,-1.612395,1.986910,2.058618
18.870110,4.080435,-4.138983,7.274806
18.970110,-1.079077,3.816676,-6.395258
19.070110,0.001610,0.146080,-1.505197
19.170110,-0.908994,1.697901,-3.168970
19.270110,3.107062,-3.447709,6.135050
19.370110,1.461565,-1.019349,1.026430
19.470110,1.829645,-3.122026,1.122482
19.570110,3.514480,-0.212266,2.299907
19.670110,5.015844,-3.502941,7.082955
19.770110,3.220150,-0.860213,2.655246
19.870110,1.914022,0.544980,-0.169222
19.970110,-0.730338,3.928106,-4.620502
20.070110,6.557392,-11.714792,26.503450
20.170110,-0.273975,-1.302793,-2.138316
20.270110,3.431793,6.033427,-5.146648
20.370110,4.638807,-1.970353,2.902162
20.470110,1.164805,-0.762814,0.695122
20.570110,-0.222926,-1.583252,0.481595
20.670110,2.189723,0.547011,-1.615386
20.770110,2.207345,0.547469,-2.729630
20.870110,5.566331,-3.344425,5.405220
20.970110,3.761754,0.576320,0.097094
21.070110,2.371552,-0.949179,1.863580
21.170110,0.786719,-1.729763,1.716666
21.270110,0.753618,-0.785362,1.111580
21.370110,1.637664,-2.704934,4.263294
21.470110,2.669401,-3.645880,3.972948
21.570110,1.053547,0.703189,-1.110500
21.670110,-0.086680,0.686993,-1.339638
21.770110,0.064622,11.832477,-28.948273
21.870110,-6.241084,-19.620886,26.801804
21.970110,4.778744,7.717927,-8.052313
22.070110,-2.697735,-7.723051,8.100002
22.170110,4.528794,-18.853018,-2.321353
22.270110,0.090981,-2.648245,-1.602412
22.370110,-1.300001,-11.193849,12.696874
22.470110,-0.405898,0.994430,3.272495
22.570110,3.462434,2.722066,-2.357935
22.670110,-2.350608,2.776916,-6.279280
22.770110,1.006302,6.860150,-7.730445
22.870110,0.829183,5.092351,-7.867270
22.970110,2.288602,0.254180,-1.360642
23.070110,-1.103134,-1.646526,2.635844
23.170110,1.010092,1.918784,2.738048
23.270110,-2.026577,2.214681,-3.714004
23.370110,-1.277673,-0.299809,0.375957
23.470110,-3.302799,-1.968568,8.948995
23.570110,3.158523,-4.672298,0.471549
23.670110,1.915202,4.982307,-1.175049
23.770110,2.717744,-4.122271,4.469306
23.870110,1.149128,-0.375752,2.559706
23.970110,1.236484,3.682806,4.370840
24.070110,-0.382089,-2.104289,-1.792213
24.170110,-1.330896,2.802424,-3.095699
24.270110,-1.612876,-2.149330,1.189850
24.370110,3.149418,1.272549,-2.794201
24.470110,1.062047,2.786466,-1.695667
24.570110,-1.674943,-0.815484,-2.032807
24.670110,1.858394,-2.544268,6.416973
24.770110,-8.786688,7.219998,-14.059180
24.870110,-1.204728,-7.990526,11.618876
24.970110,0.295055,5.849349,-7.034664
25.070110,-0.523976,-8.699317,7.737998
25.170110,3.970942,-6.481741,17.345089
25.270110,-2.834300,3.928992,-11.132450
25.370110,2.287985,-4.403687,11.213580
25.470110,2.285400,8.727375,-10.659184
25.570110,1.242419,-1.971286,-2.863124
25.670110,3.190528,0.012907,3.112888
25.770110,0.610501,2.031593,-0.270711
25.870110,-0.005790,5.240770,-4.354156
25.970110,4.152362,-3.087740,2.820669
26.070110,2.287081,7.213588,-9.035678
26.170110,1.466285,-10.133221,7.703447
26.270110,1.317756,5.023341,5.350134
26.370110,5.104899,-6.228586,2.264453
26.470110,5.461306,-0.782402,4.904773
26.570110,1.673826,1.309103,4.157514
26.670110,-0.774861,5.638823,-8.762643
26.770110,3.038213,-7.016620,7.419626
26.870110,2.318477,1.735452,-2.303343
26.970110,-0.619160,-2.097076,-5.833647
27.070110,0.364757,2.151587,2.068876
27.170110,-5.397646,1.242684,-7.441455
27.270110,-2.302095,-4.235253,0.291858
27.370110,-1.266043,-2.251747,2.277155
27.470110,-0.135008,-8.723663,11.847324
27.570110,-0.316166,-0.668980,-1.811548
27.670110,-0.556514,-3.822095,2.935705
27.770110,1.589803,0.316536,2.121215
27.870110,1.823670,-5.614665,3.817243
27.970110,2.977681,-1.222963,4.082812
28.070110,-0.799474,2.305574,-5.003490
28.170110,-0.631734,-2.183570,-0.225851
28.270110,5.612303,0.091916,8.836235
28.370110,0.450732,5.815429,-7.301335
28.470110,2.425969,-5.802366,5.448418
28.570110,-0.516336,3.279591,6.186793
28.670110,-3.680800,4.923664,-8.135450
28.770110,-1.309112,-4.947443,-4.919110
28.870110,0.944432,-4.944697,-0.588798
28.970110,-0.861769,5.919252,-13.973388
29.070110,1.410699,0.284321,1.807793
29.170110,2.698483,-1.762409,10.209182
29.270110,3.503428,1.121738,-3.749932
29.370110,0.065665,2.938398,14.690392
29.470110,-0.608264,-9.430204,16.241821
29.570110,3.017640,18.283606,-23.577621
29.670110,2.052660,-1.739600,-3.167169
29.770110,1.648162,1.404743,1.688871
29.870110,0.323829,-4.440013,5.542695
29.970110,0.558679,-1.866745,18.690681
30.070110,-0.444117,-1.441320,1.335122
30.170110,-6.784231,-10.453300,10.412298
30.270110,-1.191159,2.145890,-1.444981
30.370110,0.325703,0.011299,-9.057585
30.470110,-1.697948,-6.180195,4.805902
30.570110,-0.334380,1.990092,-0.044540
30.670110,3.039899,-3.678092,12.450521
30.770110,-2.585060,-1.660770,0.395740
30.870110,-2.319774,3.466575,-11.541636
30.970110,-1.640477,0.907610,-6.247470
31.070110,-6.079144,-6.258940,4.033305
31.170110,-1.656746,-9.849625,11.183812
31.270110,0.267533,-0.584279,-5.021684
31.370110,-1.768092,-1.517163,-4.042543
31.470110,-2.378472,-3.020913,-4.567416
31.570110,1.606070,2.210435,-1.921897
31.670110,1.763434,-10.875072,13.633034
31.770110,-4.794497,-0.747296,4.248252
31.870110,-1.967482,-3.108156,0.588257
31.970110,9.259321,-1.479493,6.970397
32.070110,1.592675,-2.362160,14.190647
32.170110,-1.223757,-0.303291,1.953092
32.270110,2.129167,0.676259,-4.367050
32.370110,-1.871112,-1.008766,-0.704203
32.470110,-3.821505,0.926344,-1.261329
32.570110,4.204088,-1.848806,3.411661
32.670110,2.423944,-4.097915,0.194392
32.770110,1.448994,-2.296531,-0.839414
32.870110,-0.410056,-5.884132,-1.425507
32.970110,-1.308803,-6.979647,4.735410
33.070110,-0.769972,6.258488,-15.999007
33.170110,-0.148672,-3.149699,3.396930
33.270110,2.150648,-2.180782,3.869787
33.370110,-0.514450,-8.859943,-2.570367
33.470110,0.294725,2.722572,-9.104551
33.570110,-2.008492,-9.751668,8.792488
33.670110,5.044330,8.430937,-11.302057
33.770110,3.219464,-5.509108,8.747631
33.870110,2.618131,8.156434,-15.600540
33.970110,-1.106276,-3.413808,7.207302
34.070110,0.001736,0.232958,-1.878594
34.170110,-0.492427,-4.640205,4.203782
34.270110,0.110464,-2.963796,1.818215
34.370110,-0.202332,1.356232,-1.907549
34.470110,-2.023874,-0.168151,-4.423233
34.570110,0.068498,-1.806696,-1.401934
34.670110,0.127706,-0.795980,-1.591084
34.770110,-0.170485,0.004809,3.076645
34.870110,-2.729776,1.806198,-1.757853
34.970110,-1.116607,-0.339199,-5.278584
35.070110,-1.684178,-3.287809,3.190500
35.170110,-1.773417,2.275780,-0.789776
35.270110,0.551823,-1.126132,-3.136210
35.370110,-0.380811,3.115700,-7.848338
35.470110,-1.368853,-5.996628,8.090261
35.570110,-2.642633,-5.982490,4.432379
35.670110,2.875985,0.964743,-6.483029
35.770110,1.891059,-1.239997,-2.447112
35.870110,-0.014162,-6.578915,5.489223
35.970110,0.485139,-3.554708,1.349493
36.070110,0.035740,-6.023936,5.812554
36.170110,-3.307281,-0.196859,-5.201506
36.270110,-2.245416,-5.491058,2.414915
36.370110,-1.832688,-2.296133,-0.673336
36.470110,1.104159,0.187794,-3.327444
36.570110,-0.344534,0.779703,4.613876
36.670110,1.208598,-4.786475,2.799076
36.770110,-0.350495,-4.126984,2.710077
36.870110,1.859386,0.903542,-4.593132
36.970110,-1.131968,-1.294608,1.634691
37.070110,2.630271,-2.827729,-3.658960
37.170110,0.921921,-3.513188,1.558396
37.270110,-1.054180,0.628449,-4.301202
37.370110,-0.574438,-6.569606,10.719380
37.470110,-1.312805,-3.452225,4.225049
37.570110,-5.119521,1.840514,-4.431466
37.670110,-0.504414,1.160380,-5.193231
37.770110,-0.021672,-7.378722,8.543714
37.870110,-0.039452,-3.211292,1.528833
37.970110,1.072541,-1.674699,0.056496
38.070110,-4.884837,-5.626862,5.854543
38.170110,-0.092873,3.198799,-7.013407
38.270110,-0.879616,2.395700,-5.854175
38.370110,1.477214,-0.465523,-1.974579
38.470110,-2.119291,-2.308852,-1.481995
38.570110,1.053539,2.481097,-3.686399
38.670110,1.224543,-6.532059,6.050346
38.770110,0.553555,-2.520300,4.344458
38.870110,1.087018,-2.671657,-1.339608
38.970110,1.121064,-2.095430,0.680411
39.070110,0.489220,2.559150,-9.870982
39.170110,-2.703623,-4.931184,2.623936
39.270110,-0.865403,5.995720,-9.810464
39.370110,-2.035099,-9.831652,11.944962
39.470110,-0.877236,5.772687,-10.977257
39.570110,0.351335,-7.441106,7.240360
39.670110,-4.047071,6.968514,-8.625179
39.770110,2.007340,2.204248,-0.016843
39.870110,-0.682393,-3.975849,3.597494
39.970110,-1.636922,1.971744,-6.377609
40.070110,-1.193015,-3.760601,5.035364
40.170110,0.761749,-0.753820,1.127342
40.270110,-0.911096,-0.365620,-4.105917
40.370110,-2.674473,-6.358630,9.328373
40.470110,-0.987720,2.835740,-6.356389
40.570110,0.973853,-15.403370,19.532681
40.670110,1.930213,2.886950,-8.797918
40.770110,-0.831772,-0.050235,1.310286
40.870110,-0.555903,4.050717,-8.200727
40.970110,-0.476580,-8.648150,7.941914
41.070110,-5.404853,3.783310,-8.336438
41.170110,-1.116401,0.282685,-3.578292
41.270110,-0.093224,-5.245650,10.646890
41.370110,-1.241504,2.396646,-3.906863
41.470110,-1.335835,-4.367210,9.280457
41.570110,2.634810,3.742782,-2.796778
41.670110,-0.697411,-5.167981,4.571644
41.770110,-0.207106,3.387138,-7.657461
41.870110,1.286824,-7.477736,6.613092
41.970110,1.871359,-9.831599,7.872579
42.070110,2.995605,6.135706,-7.242288
42.170110,-1.249506,-9.021278,9.268996
42.270110,2.561166,-4.830803,7.003444
42.370110,-0.807194,1.499826,-2.692747
42.470110,5.527905,-0.819041,10.804772
42.570110,-3.472861,-9.070292,11.079217
42.670110,0.002287,2.047827,-1.272516
42.770110,0.426375,5.287843,-14.163215
42.870110,-3.715167,-16.484926,22.162165
42.970110,0.793960,-4.733442,-4.481099
43.070110,-2.253436,0.972810,-2.185399
43.170110,-0.518826,-10.186291,7.439314
43.270110,-0.780643,-2.082357,7.128956
43.370110,-2.515794,-3.831982,4.892639
43.470110,3.249965,9.630950,-12.724082
43.570110,2.110675,-15.061309,16.230728
43.670110,-0.459200,-6.466284,4.897597
43.770110,-2.755942,4.962760,-11.580158
43.870110,-3.466203,-3.117610,-1.177670
43.970110,0.816510,-6.199863,3.669042
44.070110,0.486518,-0.231713,1.435773
44.170110,1.485366,-3.663663,0.339583
44.270110,4.374470,5.035241,-7.823746
44.370110,1.715576,2.498523,-3.085472
44.470110,2.750331,-0.248328,-0.390040
44.570110,1.408816,-2.712724,-3.006767
44.670110,1.884344,0.105673,5.618085
44.770110,-2.821052,0.226509,-0.920556
44.870110,-1.109680,-0.706808,-2.783222
44.970110,1.925908,-1.788662,2.200409
45.070110,-4.095327,1.744151,-7.405860
45.170110,-3.690120,-8.518613,17.353704
45.270110,2.133907,1.649196,-4.229801
45.370110,0.181346,5.467456,-7.651338
45.470110,4.797404,-8.508338,8.035134
45.570110,3.168719,-5.322563,8.728160
45.670110,0.399833,2.211581,-0.054010
45.770110,-0.926504,-4.155573,4.445733
45.870110,-1.593605,1.971853,-5.177765
45.970110,-3.545986,0.731052,2.975756
46.070110,-3.799201,-0.522199,1.595210
46.170110,1.809334,0.849667,-0.211369
46.270110,-0.528047,-6.412587,12.218266
46.370110,-2.517624,3.398680,-11.324736
46.470110,-0.680003,1.988093,-3.027374
46.570110,3.610507,-1.747501,2.847430
46.670110,-0.757821,-6.341119,1.232881
46.770110,0.799347,-0.495057,-3.148481
46.870110,-0.018692,-4.473967,1.404505
46.970110,-0.786322,2.954930,-2.954157
47.070110,1.772097,-3.573432,5.148518
47.170110,-1.344422,-0.094627,-1.873250
47.270110,-3.800330,0.556201,-2.649319
47.370110,-0.669899,2.890577,-4.787308
47.470110,-0.790664,-8.986067,7.182971
47.570110,-0.038345,3.510068,-11.090487
47.670110,-1.064745,-4.269865,1.876662
47.770110,0.332330,3.089004,-2.106636
47.870110,1.914959,1.326998,0.462865
47.970110,-0.444454,-2.883257,-1.497752
48.070110,0.894756,-5.461147,4.863125
48.170110,2.166398,-3.800315,2.419778
48.270110,-1.085552,-0.344998,-2.081639
48.370110,0.840944,5.094137,-14.328272
48.470110,2.317405,-4.563309,9.006822
48.570110,-4.282393,-0.827657,3.448732
48.670110,-1.218322,7.293097,-12.198040
48.770110,1.345081,-11.805917,10.409927
48.870110,-0.134132,0.311515,-4.591406
48.970110,-0.711193,-0.717801,1.084515
49.070110,0.642383,0.891131,-4.748904
49.170110,0.914452,-5.835583,2.447324
49.270110,-1.068448,-2.221749,-2.198511
49.370110,-0.190598,-4.452136,7.449417
49.470110,3.249309,-1.661188,0.475270
49.570110,-0.348916,-2.589731,0.856694
49.670110,-0.905825,2.742326,-5.996316
49.770110,0.732835,5.898741,-7.262600
49.870110,-3.900290,-9.626318,6.926320
49.970110,0.806766,1.436840,-3.712043
50.070110,-2.846632,-3.390384,-2.804711
50.170110,-3.101743,-9.388572,2.468451
50.270110,2.251669,7.759809,-13.330563
50.370110,0.581044,-1.580946,-0.373415
50.470110,-0.546872,-2.110876,4.215263
50.570110,-1.052933,-1.343394,-1.955092
50.670110,-0.501768,1.039491,0.025502
50.770110,4.131032,-8.863919,10.469959
50.870110,-0.410916,4.239676,-3.415972
50.970110,1.868316,-2.775275,2.330907
51.070110,1.366058,-2.080322,0.983226
51.170110,-2.917277,-0.445028,-3.623683
51.270110,2.162669,-1.891880,1.216626
51.370110,0.735372,0.041939,1.528106
51.470110,1.420575,-1.369735,-4.101772
51.570110,-3.274053,-0.072395,0.648235
51.670110,-2.424111,-1.930591,0.823791
51.770110,-1.942175,-3.599161,-2.438456
51.870110,-0.141554,-2.665977,6.922708
51.970110,0.128348,-0.630355,7.724992
52.070110,3.141705,2.336298,-1.099619
52.170110,0.997858,-1.702174,-2.731532
52.270110,-3.293183,9.045995,-14.977485
52.370110,-0.713887,-1.817115,9.169550
52.470110,-3.978424,-4.960539,4.447793
52.570110,0.740886,-5.738935,3.957493
52.670110,-0.112853,1.555783,-1.731855
52.770110,-0.734278,-2.018005,2.705408
52.870110,3.132895,-2.719530,2.986446
52.970110,0.111469,3.723734,-10.325045
53.070110,-1.163810,-3.418966,3.343445
53.170110,-0.063839,-4.724533,3.745602
53.270110,-1.814842,2.762217,-9.209569
53.370110,2.234458,-8.727104,4.615939
53.470110,-2.526191,-2.069296,-0.755123
53.570110,-1.295292,2.389995,-0.171235
53.670110,-2.663841,-4.835180,7.765544
53.770110,1.392722,5.380413,-8.255071
53.870110,2.019649,3.569952,-5.255095
53.970110,-0.104565,-8.115419,15.581012
54.070110,2.613011,6.067915,-11.818874
54.170110,0.475263,5.925950,-1.399355
54.270110,7.959275,-6.760060,1.785153
54.370110,-0.606087,1.603961,-0.942035
54.470110,1.966439,-5.039820,9.169451
54.570110,-0.310930,6.557673,-14.948984
54.670110,1.966443,-4.718255,-3.048220
54.770110,0.353443,-6.682508,6.821480
54.870110,-6.286122,6.296009,-13.842733
54.970110,-0.093663,-11.001018,16.256168
55.070110,5.596344,-10.847779,11.688711
55.170110,-9.615233,10.963296,-27.267879
55.270110,2.532390,-9.658961,21.698454
55.370110,-3.070127,-0.884920,-12.115390
55.470110,-1.142087,-1.428783,-3.933219
55.570110,7.167962,2.611442,-0.619085
55.670110,-0.678038,-7.107875,8.384980
55.770110,-2.095445,-0.010200,-1.998999
55.870110,-1.586748,-5.352358,-2.452847
55.970110,-3.092099,0.537243,-12.243543
56.070110,-4.504399,1.742553,-2.375624
56.170110,0.957327,-2.673039,4.450028
56.270110,1.786153,0.759647,-7.592757
56.370110,2.257406,-1.888431,1.753709
56.470110,-0.290527,-3.043744,-1.337406
56.570110,-0.493555,-0.089403,-5.710036
56.670110,0.863412,-5.494409,6.535628
56.770110,1.810114,-8.750777,8.297166
56.870110,1.026718,-0.138987,-1.949249
56.970110,4.163895,-19.338985,18.835785
57.070110,2.304685,-0.303131,0.682271
57.170110,3.049031,-10.467094,12.730683
57.270110,6.219242,21.326759,-6.796046
57.370110,-2.568223,-8.757082,6.931684
57.470110,3.189545,-3.447267,2.487184
57.570110,-2.108858,8.666733,-15.681950
57.670110,3.731370,-4.685550,3.459966
57.770110,3.435092,-2.281243,2.958319
57.870110,3.167654,-2.065145,5.970417
57.970110,4.024570,-1.661307,1.485031
58.070110,2.652887,12.061146,-10.357483
58.170110,1.742076,0.130580,-0.392005
58.270110,1.195833,14.102187,-5.497000
58.370110,3.501668,2.079921,-2.437932
58.470110,4.242575,-3.238239,9.345795
58.570110,-0.059165,2.925737,-3.617747
58.670110,-1.224129,-5.930511,12.079719
58.770110,1.332054,9.932182,-11.894826
58.870110,-0.506117,2.944925,-0.228169
58.970110,2.053357,-3.613651,0.088330
59.070110,1.223004,-0.539150,-1.498175
59.170110,-0.103513,6.580721,-3.930028
59.270110,4.073264,0.631305,2.258027
59.370110,1.585336,-4.118966,8.267645
59.470110,-2.289723,4.746945,-5.051378
59.570110,2.802590,-2.737160,2.080213
59.670110,-0.240597,4.159601,-8.296873
59.770110,1.788076,-0.067560,0.463818
59.870110,1.171698,-0.043048,3.371748
59.970110,2.600667,4.045434,-3.365105
60.070110,1.901232,-1.089646,2.226917
60.170110,-2.425809,-0.083791,1.839625
60.270110,-0.481131,-0.849550,-0.766378
60.370110,3.780977,-2.337508,4.178682
60.470110,0.300912,-3.530520,6.207746
60.570110,-0.560718,1.792296,-2.420764
60.670110,2.079550,0.894569,-0.300747
60.770110,2.190972,-1.824820,4.843886
60.870110,0.871699,-1.076050,4.163981
60.970110,-0.995236,-2.732002,1.457925
61.070110,2.379103,-0.056185,-0.088438
61.170110,0.854418,0.335877,-0.127676
61.270110,-2.249676,2.419572,-5.003128
61.370110,-1.262622,0.850317,-2.247319
61.470110,0.561061,0.852271,1.263390
61.570110,1.389363,-1.093661,0.769507
61.670110,2.722148,0.327074,-2.951963
61.770110,0.300333,-0.698765,-1.215724
61.870110,1.286901,2.206270,-2.075778
61.970110,0.056715,-0.916113,1.165627
62.070110,-0.889698,0.234895,-0.726908
62.170110,2.170146,0.449882,-1.323815
62.270110,-0.361913,2.661702,-4.511652
62.370110,0.456517,-1.572561,-0.979288
62.470110,0.022533,0.324328,-0.386513
62.570110,2.686565,-2.213774,4.001987
62.670110,2.982656,-0.856154,2.949021
62.770110,2.039594,1.630113,-3.275869
62.870110,1.451453,-0.575939,2.025161
62.970110,0.304517,-1.047668,2.047673
63.070110,3.068815,-2.608303,4.280428
63.170110,0.592076,0.403811,-1.223091
63.270110,1.102499,0.006985,-1.270288
63.370110,1.056768,0.283163,0.539240
63.470110,-1.282406,-1.118383,1.918271
63.570110,0.702350,-2.959682,3.187708
63.670110,2.882823,1.686500,-0.647041
63.770110,2.183981,-0.020430,0.132188
63.870110,0.459265,-0.690810,1.305465
63.970110,-1.080572,2.513710,-4.079163
64.070110,3.344086,0.481064,-0.068372
64.170110,1.685014,-2.967106,2.915993
64.270110,0.755118,0.328878,-2.871709
64.370110,-1.619387,1.890190,-2.593705
64.470110,-1.645224,-1.018570,-0.187928
64.570110,-0.263404,0.814965,-2.112423
64.670110,-0.225624,-1.401784,2.061686
64.770110,3.444946,-1.439791,0.670701
64.870110,2.461478,-1.405494,-0.999030
64.970110,1.577949,0.811470,-2.776398
65.070110,0.535230,-0.001679,-0.111515
65.170110,1.764004,0.619562,-0.369856
65.270110,4.365513,-0.419867,6.764558
65.370110,0.302517,-0.707381,0.825737
65.470110,1.245458,1.399411,-4.145765
65.570110,1.484785,-1.717446,2.428520
65.670110,0.377018,-0.684219,0.183106
65.770110,1.789333,1.307385,-3.434821
65.870110,0.329069,-1.841398,1.929692
65.970110,0.757329,-2.146584,1.310870
66.070110,4.174858,5.137959,-9.449749
66.170110,-1.046836,1.143808,-0.669078
66.270110,1.247649,-3.679318,4.278437
66.370110,-1.731717,-1.859298,-0.528316
66.470110,-0.381211,1.323798,-2.438173
66.570110,1.525308,-0.007834,-1.218406
66.670110,0.599105,3.562230,-5.102490
66.770110,0.162229,-2.134104,3.471256
66.870110,-0.216773,-0.539152,1.342811
66.970110,1.186856,-1.002763,1.494767
67.070110,1.468675,-3.523881,1.738357
67.170110,0.967396,1.445765,-1.018358
67.270110,0.250160,-2.446852,2.963470
67.370110,0.871094,3.122000,-3.911277
67.470110,-3.491940,1.203225,-2.552186
67.570110,0.336431,-0.092063,0.673841
67.670110,-0.262824,-6.565687,6.372778
67.770110,0.462007,1.579628,-2.062647
67.870110,4.363294,1.465837,-2.846046
67.970110,0.531306,-0.362791,-0.161421
68.070110,0.096030,0.900775,-1.575898
68.170110,0.733428,0.866989,-2.333891
68.270110,-0.204867,-2.039710,3.271221
68.370110,1.452877,-3.165785,6.010529
68.470110,1.260682,0.828890,0.421864
68.570110,1.377194,-0.266318,-1.023506
68.670110,2.013758,-0.717111,-0.696246
68.770110,-2.865273,3.120139,-5.712832
68.870110,-0.026957,-0.723466,-1.685569
68.970110,0.449513,-5.451713,7.513984
69.070110,0.277298,-0.203390,-1.265767
69.170110,4.325216,0.950871,0.436070
69.270110,0.626973,-0.351080,-0.462423
69.370110,-0.412139,-1.409692,2.395612
69.470110,-0.790111,-1.590691,1.289630
69.570110,-1.074237,-1.753101,4.421719
69.670110,-0.766018,1.143246,-1.788498
69.770110,-0.640053,0.721938,-0.148487
69.870110,0.556204,0.124152,1.100752
69.970110,3.014132,-1.269214,-3.564592
70.070110,0.069446,2.576204,-5.147431
70.170110,0.419080,-1.392500,2.514050
70.270110,1.102609,0.992549,-0.011372
70.370110,0.703810,0.006784,1.035455
70.470110,1.382401,0.075368,2.073016
70.570110,-0.490731,-1.612691,0.424588
70.670110,-1.759655,-1.105335,1.273165
70.770110,0.801509,1.263999,-0.215318
70.870110,-3.403426,-1.020247,-3.403610
70.970110,-3.704856,0.356148,-2.997983
71.070110,1.347338,0.317490,-0.110973
71.170110,0.834585,0.067074,-1.147101
71.270110,3.011822,-1.978035,2.945965
71.370110,2.228906,-2.647549,4.145755
71.470110,0.925135,-0.161199,-0.316124
71.570110,2.906432,-0.180480,-0.534861
71.670110,1.004077,-0.308908,0.763814
71.770110,-0.455154,-0.046829,0.313160
71.870110,2.800769,0.221702,-1.376415
71.970110,0.801780,-2.070369,3.352176
72.070110,1.134939,-2.113112,3.251029
72.170110,-6.564292,5.632946,-13.138582
72.270110,-2.138283,0.970066,-2.639538
72.370110,1.416705,-2.764778,0.769828
72.470110,0.326198,0.006144,-1.551939
72.570110,1.776346,-4.139710,2.317468
72.670110,1.661631,0.331010,-2.722937
72.770110,1.051205,2.910463,-1.476690
72.870110,1.835977,-0.260306,-0.056580
72.970110,0.441074,-2.654631,4.107370
73.070110,1.946432,-1.401974,1.666273
73.170110,-0.001414,-0.724670,-0.464382
73.270110,-1.144350,-1.223918,1.238374
73.370110,-0.662890,1.113478,-1.282103
73.470110,-4.843003,1.810462,-5.230957
73.570110,-1.715892,1.339613,-4.308040
73.670110,1.717986,0.647771,-1.379966
73.770110,0.610152,-1.194587,2.725712
73.870110,4.142129,-3.630581,1.519002
73.970110,4.666705,-1.873478,2.973142
74.070110,1.111901,0.897222,-1.836098
74.170110,-0.243522,-1.907733,0.949870
74.270110,-1.025519,-0.087287,0.609255
74.370110,0.154679,-0.820995,2.897085
74.470110,2.119343,-1.888084,2.896226
74.570110,0.551998,-1.195301,-3.108383
74.670110,1.565900,-4.467922,4.348170
74.770110,-0.967499,2.399929,-5.476457
74.870110,-2.411325,2.660124,-3.661011
74.970110,1.432177,-0.684673,-1.205868
75.070110,-0.506000,-1.370785,3.918239
75.170110,-1.944347,-5.266374,7.672101
75.270110,-1.175356,0.251024,-1.472092
75.370110,0.455539,1.428624,-0.633220
75.470110,0.840028,-0.038521,-1.375320
75.570110,2.722396,-0.422908,-0.593141
75.670110,1.395199,3.006493,-7.379947
75.770110,-0.082799,-1.296330,3.689954
75.870110,1.585087,-0.226014,-0.275898
75.970110,-0.747183,0.947175,-2.024225
76.070110,-3.058364,1.822178,-1.191482
76.170110,0.293475,-0.090598,-3.199830
76.270110,-0.896680,-0.648670,-0.335160
76.370110,-1.456102,-1.444224,2.300809
76.470110,4.180311,0.638029,1.231582
76.570110,0.249889,-2.606991,4.377852
76.670110,-0.616207,0.448811,-0.788060
76.770110,-1.559994,-0.151867,-0.603721
76.870110,2.256299,-4.276499,5.230433
76.970110,-2.604290,2.285876,-5.336483
77.070110,-1.215728,-2.336617,1.374401
77.170110,-1.094876,0.516258,-0.498711
77.270110,-3.312858,0.371656,-4.303326
77.370110,-2.629144,0.658429,-1.617241
77.470110,1.246883,-1.885185,5.203378
77.570110,-1.280327,-0.648036,-0.007258
77.670110,-4.129402,0.934776,-2.537982
77.770110,-1.628991,-7.650962,8.743101
77.870110,1.067517,0.245545,-0.970345
77.970110,-1.028796,-1.536867,0.435888
78.070110,-0.832138,0.691970,-1.195327
78.170110,0.619347,-3.882699,3.578539
78.270110,-0.692812,-2.655636,1.928714
78.370110,-0.742170,1.861816,-2.661730
78.470110,2.298115,-5.150704,6.498454
78.570110,-0.784630,0.982893,-1.479840
78.670110,-0.241060,4.955508,-8.641662
78.770110,-0.648824,-5.164517,5.401122
78.870110,-0.192801,-3.188282,4.544543
78.970110,1.096334,-6.159791,-0.055244
79.070110,1.697659,-5.369939,6.574148
79.170110,1.859365,-4.164352,9.066952
79.270110,2.566827,-6.598329,5.390817
79.370110,3.506867,-2.431530,-0.282824
79.470110,1.494703,-0.288122,-3.996816
79.570110,2.206943,1.478291,0.131610
79.670110,2.800359,-3.827806,4.398427
79.770110,1.189608,-0.680168,-0.422640
79.870110,-0.909624,2.400785,-4.975420
79.970110,1.112965,-3.331441,-0.417015
80.070110,1.737215,-3.457927,3.596471
80.170110,-0.778690,0.257344,4.058203
80.270110,-1.538552,-1.116787,-0.337328
80.370110,1.676288,2.766075,-2.535425
80.470110,0.046602,-1.098618,-0.635416
80.570110,-4.236793,2.062263,-2.022372
80.670110,-1.086347,-3.114464,2.922847
80.770110,0.488040,1.903740,-4.330810
80.870110,0.965262,2.417881,0.864588
80.970110,-3.623487,0.272360,-3.269354
81.070110,1.911084,-0.613288,0.802027
81.170110,0.839070,1.044045,-3.028654
81.270110,2.479196,5.484748,-4.551297
81.370110,-2.406287,-0.836867,1.403516
81.470110,-0.273652,2.547128,-3.145557
81.570110,1.410865,-3.487187,8.618414
81.670110,-3.886633,4.544971,-3.644390
81.770110,-4.507705,-0.726537,1.807307
81.870110,-3.117378,-0.403429,0.068083
81.970110,1.987734,-2.790912,3.173038
82.070110,1.658614,1.172309,-2.382921
82.170110,-5.030585,3.294749,-6.153368
82.270110,-0.293552,2.890486,-5.369398
82.370110,1.089984,-1.994627,4.643354
82.470110,4.939082,-8.826734,2.676710
82.570110,2.893396,-1.118254,-0.497049
82.670110,1.500710,1.793283,-1.873715
82.770110,-0.262142,3.367743,-2.939613
82.870110,-8.883842,0.410539,-3.675613
82.970110,-0.396615,-1.916291,5.029079
83.070110,2.249826,-5.663422,6.140338
83.170110,-2.144107,-0.165799,-4.386856
83.270110,-0.856373,8.206797,-9.417731
83.370110,-1.429371,-1.528633,6.708848
83.470110,1.158517,-3.434697,-3.387575
83.570110,-2.006834,2.889851,-4.684104
83.670110,3.385275,-11.029115,15.883687
83.770110,-5.594985,6.520878,-15.864918
83.870110,6.681078,-3.500571,5.478329
83.970110,-6.510539,4.473784,-3.324042
84.070110,-3.644280,1.688075,-8.220302
84.170110,-0.797319,-0.720551,1.266584
84.270110,11.624373,3.349600,2.247196
84.370110,4.012044,3.594778,-0.763106
84.470110,0.870008,-3.381781,-0.433756
84.570110,-5.193922,-7.783549,0.645806
84.670110,3.529517,-1.766616,-1.748783
84.770110,-0.213431,-3.319257,1.494720
84.870110,-0.992014,5.771389,-4.006724
84.970110,-3.918464,-11.597038,7.204921
85.070110,1.334166,7.653765,-11.325906
85.170110,3.829189,2.281477,0.410526
85.270110,-5.458100,-1.409490,5.557887
85.370110,-0.905908,-4.105086,1.916657
85.470110,-1.664053,2.235620,-4.297788
85.570110,0.791842,-6.415000,7.803551
85.670110,-0.423974,2.272229,-0.792593
85.770110,-2.504354,2.629827,-0.548912
85.870110,7.887010,-1.982031,8.875472
85.970110,3.726554,1.783047,1.064387
86.070110,-1.501130,0.099331,1.902447
86.170110,9.555536,3.537101,-0.081798
86.270110,0.137567,1.995739,-1.302599
86.370110,-3.693587,0.305519,-2.257258
86.470110,3.819048,4.009072,-1.261707
86.570110,-0.633000,1.841878,-4.373539
86.670110,-1.763531,-2.844535,-0.287774
86.770110,6.757841,7.632780,-6.050503
86.870110,-1.073533,0.089115,1.672827
86.970110,-2.224287,-3.562044,7.297704
87.070110,4.269636,4.860810,-5.230333
87.170110,0.572639,0.405571,-0.582430
87.270110,-2.475551,-6.799335,8.291807
87.370110,3.329263,3.237990,-3.713815
87.470110,1.032458,1.626979,1.271856
87.570110,-0.486214,-5.131953,7.131707
87.670110,0.854426,-3.087910,5.703303
87.770110,1.273859,4.751149,-6.601054
87.870110,1.189542,-0.680740,-4.746551
87.970110,-6.670010,-5.019971,0.286778
88.070110,1.648917,-0.278528,4.038547
88.170110,1.187961,6.424083,-6.547459
88.270110,-3.650652,-5.339814,1.760657
88.370110,-2.524446,-0.184650,-5.380645
88.470110,2.226029,-0.949568,0.353886
88.570110,-3.726541,-2.215980,-1.809992
88.670110,-2.602687,2.459370,-8.115182
88.770110,1.219682,-0.826426,-0.680113
88.870110,-0.018260,-4.496216,1.422494
88.970110,-2.002577,-0.901867,-1.143643
89.070110,2.280718,-1.513544,0.535080
89.170110,1.429894,-1.431386,0.894553
89.270110,-4.031911,-4.224047,1.266282
89.370110,1.712422,5.490257,-11.149089
89.470110,2.728687,-4.927376,3.590911
89.570110,-0.391089,-2.621817,1.203534
89.670110,1.553104,1.249849,-5.021483
89.770110,1.990704,-8.431416,8.382374
89.870110,4.069393,-1.771591,-1.187940
89.970110,-1.391533,-3.872109,2.507929
90.070110,0.052909,3.608215,-8.281635
90.170110,-1.267822,-2.924348,3.422559
90.270110,1.123782,3.493108,-6.800092
90.370110,0.176612,-2.352248,2.998411
90.470110,-5.350299,2.512712,-4.409941
90.570110,0.520617,1.798212,-0.651927
90.670110,0.369818,-3.661694,2.875914
90.770110,4.526027,-0.834125,4.437149
90.870110,-1.208947,0.738205,1.069385
90.970110,-1.771777,1.216030,-4.788118
91.070110,0.809571,-2.405927,-1.362197
91.170110,3.010601,-2.273964,4.693057
91.270110,-0.381447,-2.704849,3.873459
91.370110,-5.266217,-0.487753,-2.843721
91.470110,-1.489322,1.357210,-1.156803
91.570110,5.330162,-0.866154,1.173028
91.670110,2.344516,-5.321974,3.727415
91.770110,0.216865,-0.090724,-2.263484
91.870110,0.880376,-5.610116,8.561784
91.970110,-1.297241,0.625897,-3.306761
92.070110,-1.770412,-2.444076,-1.792483
92.170110,4.147755,1.512173,-2.592532
92.270110,3.621563,-2.292912,1.498519
92.370110,-0.399493,0.976829,0.015817
92.470110,-4.139710,-0.508887,-2.182339
92.570110,-2.583096,-0.002354,-2.280611
92.670110,1.645966,-1.400253,3.162086
92.770110,4.977851,-6.287566,9.187490
92.870110,2.454484,5.077047,-6.880533
92.970110,-5.224412,-4.835575,1.309930
93.070110,-2.500200,-4.775036,2.488686
93.170110,0.377926,-1.487390,0.088584
93.270110,1.765133,3.222242,-12.945240
93.370110,1.356798,-11.221651,14.825257
93.470110,2.185083,1.072516,-2.589580
93.570110,-3.696186,1.350040,-3.365666
93.670110,-4.820813,0.615836,-5.226145
93.770110,-2.908072,-4.225058,4.719188
93.870110,-0.348863,2.166947,-3.752912
93.970110,3.072117,-0.074505,4.429163
94.070110,2.922997,3.065822,-3.399993
94.170110,-2.697734,-1.532869,1.428562
94.270110,3.237945,-4.223196,1.728490
94.370110,2.387220,-4.825956,2.313523
94.470110,-1.878584,-4.480345,-1.943613
94.570110,-2.985032,-3.666694,3.730218
94.670110,-4.551823,4.663234,-9.730289
94.770110,0.656509,8.428463,-15.732995
94.870110,-2.195672,-11.623914,12.199541
94.970110,0.467363,-2.612769,-4.464001
95.070110,1.529189,2.499575,-7.251807
95.170110,-1.875067,2.725710,-2.359537
95.270110,3.334653,-2.847674,-1.096238
95.370110,3.035869,-1.452741,0.730244
95.470110,0.025940,-4.590652,4.701782
95.570110,-4.508057,2.960830,-3.533710
95.670110,5.471445,5.133165,-4.994492
95.770110,2.714163,-3.264255,2.860657
95.870110,0.065170,-0.985040,2.460564
95.970110,-0.211370,-8.766800,8.741816
96.070110,0.419208,4.559290,-5.188893
96.170110,-1.291961,-0.299193,1.807664
96.270110,-0.614291,2.238241,-0.774095
96.370110,-2.111413,39.888344,-27.742426
96.470110,13.623087,-3.451807,-23.585535
96.570110,-1.899640,-22.952040,52.513588
96.670110,-0.952214,-14.807443,17.717133
96.770110,-7.292015,1.827481,-8.341293
96.870110,-3.237511,3.524217,-11.040952
96.970110,-2.135726,-3.838252,4.285228
97.070110,-5.674798,0.326424,0.873280
97.170110,2.986918,-5.849542,4.977651
97.270110,1.390792,7.353719,-8.921201
97.370110,2.744010,-8.738057,7.259260
97.470110,2.177765,-5.063156,5.094370
97.570110,0.551106,1.403267,-1.189067
97.670110,1.321568,0.038458,-4.632487
97.770110,0.195863,2.556597,-4.232107
97.870110,-0.475725,0.788842,1.920948
97.970110,-1.257996,0.229698,1.267913
98.070110,1.813981,3.080139,0.040836
98.170110,-5.079422,-5.188989,6.055059
98.270110,-0.176656,-0.171410,1.229511
98.370110,0.358341,1.479198,-1.065049
98.470110,2.341389,-4.905053,0.886061
98.570110,1.488726,-2.158444,-0.380121
98.670110,-2.818493,-0.711645,-2.581903
98.770110,0.158409,1.126839,-0.219694
98.870110,-6.257921,-0.324108,-2.503989
98.970110,-5.337781,-2.230008,-0.321178
99.070110,-0.796090,0.941685,-4.510402
99.170110,-1.625491,-3.944187,3.698417
99.270110,6.654826,2.772032,1.079357
99.370110,1.351213,-3.170406,0.916785
99.470110,0.265341,3.633497,-2.601457
99.570110,1.342476,-0.864196,-1.140498
99.670110,-3.311097,-2.012065,0.018650
99.770110,-0.589110,4.072861,-0.086785
99.870110,-0.488523,-1.331887,0.223899
99.970110,-6.279373,1.510612,-4.634384
100.070110,-7.758219,-0.917506,0.124765
100.170110,0.371772,-5.676754,3.290146
100.270110,-1.051077,1.282829,1.346416
100.370110,2.422514,2.334746,3.542815
100.470110,-0.249237,2.297058,-3.357188
100.570110,-0.636952,0.114443,0.018029
100.670110,1.474497,-4.734914,3.182371
100.770110,-2.779349,2.322895,-4.084965
100.870110,2.370806,1.612513,5.626174
100.970110,-2.821599,3.303841,-4.457833
101.070110,-4.166202,-2.260465,1.325234
101.170110,-0.311999,-1.986731,3.907682
101.270110,-0.527486,-2.305287,1.736694
101.370110,-4.194001,0.630962,1.085423
101.470110,-7.152685,10.946384,-22.844032
101.570110,-5.197436,-8.070796,11.004350
101.670110,0.247960,3.498567,-1.938506
101.770110,-0.336506,-1.298075,2.761604
101.870110,2.765694,5.752030,-1.115564
101.970110,-0.584094,-2.982035,5.747886
102.070110,-2.676465,6.177598,-10.619591
102.170110,-1.189309,-0.266554,3.309357
102.270110,-6.300375,-3.705057,5.826068
102.370110,-0.605000,0.173885,0.180446
102.470110,-2.124922,2.081904,-2.224196
102.570110,-0.156651,3.168845,-1.000080
102.670110,-3.855832,4.183134,-5.469317
102.770110,-2.688300,-2.129958,2.116039
102.870110,-1.434005,2.411818,-5.014061
102.970110,1.629860,-0.522450,1.811788
103.070110,3.129048,0.133176,7.342322
103.170110,-1.782428,7.951938,-7.402216
103.270110,0.521655,-2.551901,7.633938
103.370110,-5.566952,3.815087,-1.480063
103.470110,1.016641,-5.482486,7.993464
103.570110,-0.511047,2.878480,-3.024154
103.670110,-2.568187,2.011693,-0.743448
103.770110,-7.049804,0.588817,-1.836770
103.870110,-5.037863,-1.005019,3.197775
103.970110,0.733943,1.840143,-4.110676
104.070110,-0.095500,-4.739606,9.087037
104.170110,2.990772,3.161906,0.488192
104.270110,-2.108291,5.026317,-6.327562
104.370110,1.539630,-6.732593,14.431981
104.470110,0.947475,6.424769,-3.990834
104.570110,0.559563,-13.778107,26.115133
104.670110,4.147604,11.578093,-18.690420
104.770110,3.657987,-2.224022,4.057945
104.870110,-1.271533,4.625690,-10.089293
104.970110,-0.285965,-0.102330,0.525255
105.070110,1.395832,3.063764,4.261259
105.170110,-2.899277,-2.191814,2.441309
105.270110,-4.926052,-0.777520,3.133146
105.370110,-5.073493,3.815013,-4.087525
105.470110,-4.241266,-2.347829,4.216053
105.570110,-2.656441,-0.684446,1.571095
105.670110,-3.519048,3.744955,-3.075224
105.770110,-3.583200,2.390502,-1.772462
105.870110,0.810872,-0.334720,1.839908
105.970110,2.282029,-2.554053,4.497993
106.070110,3.013685,1.900273,1.200517
106.170110,-0.921217,0.313825,1.500011
106.270110,-1.416256,-0.765856,0.278255
106.370110,6.489309,3.268968,3.150648
106.470110,2.203188,2.560441,-1.081624
106.570110,-0.616016,0.074787,1.750265
106.670110,4.576501,-1.318024,-0.175390
106.770110,1.621954,-3.394350,6.104332
106.870110,-0.785654,-0.177611,-1.698286
106.970110,-2.498188,2.412046,-0.050222
107.070110,4.812369,5.546037,-0.144796
107.170110,0.227887,1.707809,0.029022
107.270110,0.728489,-1.375120,2.644816
107.370110,-4.206172,-1.108461,0.815696
107.470110,-3.495526,-3.012134,6.605266
107.570110,-0.492235,-1.626112,3.902931
107.670110,-0.345833,-6.391335,2.068835
107.770110,-1.003196,21.092028,-24.103251
107.870110,-2.450733,-18.297682,35.988808
107.970110,-4.480433,-13.415769,7.990602
108.070110,1.447780,21.944160,-22.329903
108.170110,1.199018,-3.228412,2.184613
108.270110,-1.629889,0.416844,0.308022
108.370110,-6.602227,2.386362,-3.520087
108.470110,0.279843,-1.655635,5.396704
108.570110,4.917654,1.302816,2.411455
108.670110,5.291301,-3.035034,2.594390
108.770110,2.375460,-1.731204,-0.527762
108.870110,-0.846026,-0.143333,0.667422
108.970110,3.523456,4.009895,-1.972511
109.070110,-7.242765,-0.591228,-3.066195
109.170110,-0.631984,1.203559,2.001940
109.270110,-1.293192,-2.118921,1.464460
109.370110,4.491269,3.966295,0.474002
109.470110,0.652213,3.428690,1.553405
109.570110,-2.233593,-2.199073,5.591221
109.670110,1.943706,5.176669,-6.282238
109.770110,1.582633,-3.564403,4.673990
109.870110,2.211793,1.132170,-1.341478
109.970110,-5.489260,-2.046202,-0.046024
110.070110,-5.743765,1.476601,-2.354370
110.170110,-0.372193,-1.483897,0.388408
110.270110,-0.322972,-1.179244,0.041454
110.370110,0.621289,-0.415359,0.262352
110.470110,3.149674,5.379472,-7.421690
110.570110,3.865773,-11.911447,13.277998
110.670110,5.540764,-5.369983,6.792939
110.770110,2.274238,10.619796,-10.373980
110.870110,2.798066,5.680886,-9.839769
110.970110,6.167829,-13.976719,15.405817
111.070110,0.804001,0.129063,-1.591282
111.170110,0.244274,4.539783,-5.463052
111.270110,1.263948,1.606228,1.269007
111.370110,0.324415,-4.812260,2.159982
111.470110,2.421860,2.943072,-1.535098
111.570110,-3.705995,-7.577105,4.142338
111.670110,2.187944,-0.076900,-1.156175
111.770110,-0.773313,2.785011,-5.233724
111.870110,-0.814980,-4.085899,6.349844
111.970110,-2.160731,5.751263,-8.839229
112.070110,-2.545629,0.551467,-1.640803
112.170110,7.307675,2.711797,1.627530
112.270110,3.296550,3.227387,-3.816695
112.370110,-0.773496,-0.524599,1.866781
112.470110,-7.094073,-2.729756,-0.833810
112.570110,-1.589591,-2.041534,3.028111
112.670110,1.857271,1.957759,-1.419210
112.770110,3.600105,-4.384392,5.930683
112.870110,3.028826,1.376182,-1.569081
112.970110,-0.458782,-5.614645,4.802743
113.070110,-2.222208,2.630183,-0.208075
113.170110,-1.870343,4.491582,-4.122129
113.270110,-0.950844,-1.478792,2.468122
113.370110,1.432765,-0.097829,-0.818408
113.470110,5.252367,3.173196,0.431438
113.570110,0.312039,-3.178001,7.417346
113.670110,-2.319211,-0.515346,-0.522746
113.770110,-6.074726,0.164870,-0.077625
113.870110,-2.484545,1.373015,-2.106555
113.970110,0.913489,3.924844,-2.844942
114.070110,1.387727,-4.077940,2.984022
114.170110,4.866652,-0.850144,1.204504
114.270110,1.963355,-3.208870,2.129965
114.370110,-0.030420,2.750831,-3.968851
114.470110,2.031140,1.047515,3.847055
114.570110,-0.307788,4.727492,-7.660450
114.670110,0.021028,-2.217976,0.694172
114.770110,-5.083096,-5.787068,2.861408
114.870110,-0.431706,-1.970865,3.368477
114.970110,-1.105828,2.354188,-5.080481
115.070110,1.063446,2.329777,2.377412
115.170110,-5.510824,-3.641407,0.173706
115.270110,0.503137,-3.008195,1.875776
115.370110,0.181855,1.330660,-2.545103
115.470110,-0.881854,1.938664,-4.045769
115.570110,-1.770736,-0.797606,0.321532
115.670110,0.303702,-0.477224,-2.302367
115.770110,1.490309,0.275992,-5.006433
115.870110,1.239497,-4.636641,3.972269
115.970110,0.657327,-1.323428,-0.269649
116.070110,-0.671955,-0.676461,-3.957309
116.170110,7.341832,-0.914888,3.849496
116.270110,3.132796,0.856556,-1.233836
116.370110,0.011318,-1.021518,-1.639086
116.470110,1.690569,2.142715,-8.924747
116.570110,2.033519,-5.738748,6.737501
116.670110,2.958373,2.445614,-4.632839
116.770110,0.510173,3.500994,-7.117208
116.870110,1.660263,-4.298531,1.680164
116.970110,1.362533,-1.948582,-1.713598
117.070110,2.287401,-2.316303,1.946359
117.170110,1.336423,-0.738745,-1.639904
117.270110,-4.160718,0.326066,-4.300437
117.370110,1.033045,-3.606037,3.180435
117.470110,0.138141,-0.912262,-1.398245
117.570110,0.862030,-4.492880,2.833949
117.670110,1.918049,0.215522,0.657774
117.770110,0.304435,-2.637477,3.595114
117.870110,1.014021,0.242741,-6.568691
117.970110,6.759018,1.776235,2.652231
118.070110,0.531374,-3.132586,3.862339
118.170110,1.422777,4.622310,-7.960022
118.270110,1.843986,-0.557907,3.214573
118.370110,-3.898688,-2.287218,-2.545806
118.470110,1.948552,0.340914,-0.590989
118.570110,2.114414,-2.698885,6.824434
118.670110,2.338588,-5.563770,3.023392
118.770110,3.094147,0.482891,0.320805
118.870110,0.175864,-3.941756,3.598972
118.970110,3.733944,-2.308837,-2.464264
119.070110,-2.695904,3.768447,-9.719848
119.170110,0.192103,-5.737495,9.443655
119.270110,2.197811,-0.894733,-2.538577
119.370110,1.439986,3.016491,-3.976108
119.470110,3.109334,-1.541906,2.309788
119.570110,0.618071,0.336464,0.274559
119.670110,1.225120,0.423873,-1.882711
119.770110,0.864086,-1.467626,-3.273457
119.870110,-1.886068,0.284327,-3.122005
119.970110,1.892261,0.440866,-2.578663
120.070110,2.077142,-1.443214,0.487415
120.170110,2.466982,-3.967046,4.355813
120.270110,5.540408,-2.881041,3.169645
120.370110,2.344491,-2.039915,3.890742
120.470110,0.242610,0.566890,-3.644336
120.570110,-2.289717,-1.506075,-3.027875
120.670110,-0.947646,-3.875782,2.717437
120.770110,0.366006,0.465236,-1.957215
120.870110,2.761111,-2.843090,2.301983
120.970110,6.894899,1.825419,0.328817
121.070110,2.261085,-0.841030,-0.030588
121.170110,3.731354,-0.795837,-2.746299
121.270110,0.844858,-2.104692,4.168548
121.370110,-3.000835,-1.033654,-2.582970
121.470110,1.108980,-1.852603,7.731973
121.570110,0.927140,0.766862,1.537912
121.670110,3.080071,-0.579479,-4.442457
121.770110,2.988404,-2.602896,1.859828
121.870110,2.493006,6.424900,-9.982178
121.970110,-0.293496,-2.882320,2.980856
122.070110,1.525155,-1.400585,0.188832
122.170110,0.662642,-4.469530,4.441478
122.270110,3.657533,-0.088921,-2.388698
122.370110,0.180799,2.473779,-5.786483
122.470110,-2.950489,-2.245291,-0.932964
122.570110,-0.469934,-3.160684,1.365908
122.670110,1.764771,-3.146048,4.178813
122.770110,0.027573,3.681312,-7.572915
122.870110,-3.022769,-8.769997,7.577941
122.970110,2.937857,2.079160,-1.756491
123.070110,2.658248,-8.265019,1.629892
123.170110,-1.857329,4.719344,-13.082336
123.270110,-6.845982,-11.538999,8.013610
123.370110,0.548907,-6.991951,8.107372
123.470110,0.343955,-0.586266,-2.781660
123.570110,0.362890,-4.724905,2.512708
123.670110,-0.767339,-0.788293,-0.905081
123.770110,-0.614104,-4.247289,3.143854
123.870110,0.905814,-1.153920,2.102699
123.970110,1.494859,-3.202345,-0.194465
124.070110,-1.060365,-4.264205,3.856544
124.170110,1.315819,0.455323,-1.057925
124.270110,2.240213,-4.938040,2.773187
124.370110,-1.020615,-1.387853,-0.289708
124.470110,-1.018544,-7.313539,7.772569
124.570110,4.465366,-4.177119,2.965450
124.670110,1.848751,-1.985264,0.981863
124.770110,-2.191275,-0.994345,-1.245205
124.870110,-2.833899,-2.333025,0.935926
124.970110,-1.309467,-4.649215,3.174618
125.070110,1.684481,-2.256907,1.805309
125.170110,-0.189485,-1.142816,-0.314301
125.270110,-4.518119,-0.499662,-1.127164
125.370110,-2.275102,-2.631422,-3.717120
125.470110,0.954362,-6.104631,5.390429
125.570110,-1.738656,-2.181881,-0.053404
125.670110,-3.337260,-0.713953,-6.077603
125.770110,-2.409987,-4.031175,0.781753
125.870110,1.861765,-3.683379,0.139257
125.970110,0.046215,-2.120924,0.872438
126.070110,-2.693962,-0.304056,-1.337095
126.170110,-1.705876,-0.598355,-3.517626
126.270110,1.724055,-5.240283,2.854202
126.370110,0.773825,-1.247685,-4.629274
126.470110,-1.924637,1.761473,-7.422214
126.570110,-1.306077,-0.683988,-0.193016
126.670110,0.170445,-11.436311,10.080407
126.770110,-0.201501,1.191029,-2.448911
126.870110,2.943640,-2.003177,2.057327
126.970110,-0.353406,1.167461,-3.467695
127.070110,0.782860,-4.536424,3.658956
127.170110,-1.442210,-4.534745,6.007521
127.270110,-3.009017,2.793519,-5.198812
127.370110,-0.677219,-5.506044,3.124466
127.470110,0.458912,-4.735321,3.092515
127.570110,0.019946,2.919081,-9.190963
127.670110,-1.937373,-9.343335,7.973590
127.770110,1.726589,-21.311428,52.176617
127.870110,6.975869,23.555742,-29.817297
127.970110,-0.038556,-5.335771,13.326345
128.070110,-1.814299,2.206715,-9.826928
128.170110,-1.896894,0.492284,-1.482997
128.270110,-0.892541,-3.527816,1.674164
128.370110,-0.706693,-3.917127,1.001813
128.470110,0.410736,-3.541054,-0.528088
128.570110,-1.765782,-2.539759,-2.406679
128.670110,-0.662147,0.473730,0.059245
128.770110,-0.585464,-4.114349,2.561265
128.870110,-2.147134,-3.211733,1.993397
128.970110,-0.704399,-5.028542,1.986696
129.070110,1.600329,-3.216337,3.985695
129.170110,7.012352,0.012509,3.198955
129.270110,1.168134,-0.334163,-2.712529
129.370110,1.447626,-6.803812,5.913245
129.470110,-0.978100,-1.391626,0.559985
129.570110,-2.162043,-3.797362,2.600392
129.670110,-0.218520,-0.401588,-2.764844
129.770110,1.204133,-3.489696,6.167763
129.870110,1.711645,0.508447,-4.445776
129.970110,-5.249354,-6.471880,3.673033
130.070110,-1.110655,0.811579,-6.693029
130.170110,0.715735,-5.709520,3.716818
130.270110,3.027413,-3.232819,-5.518138
130.370110,2.636289,-1.032279,-4.140180
130.470110,1.696893,-1.039219,-0.165574
130.570110,0.882598,0.217903,-2.444413
130.670110,1.062653,-7.372022,8.772157
130.770110,0.869928,-3.175390,2.026235
130.870110,1.684331,0.257541,-0.220640
130.970110,-0.614676,-1.808549,-3.621338
131.070110,-5.124048,-2.583787,2.682980
131.170110,-4.024848,0.255622,-4.260682
131.270110,1.241825,-4.539251,2.002521
131.370110,-1.700785,-3.676854,2.685870
131.470110,2.060216,2.056359,-2.409791
131.570110,-0.433127,-3.639549,3.832619
131.670110,-0.361464,-2.835009,-2.048495
131.770110,-1.793893,3.073804,-5.147119
131.870110,4.111115,-4.591369,6.098870
131.970110,1.117616,1.638600,-1.676192
132.070110,1.213269,1.090702,-3.840287
132.170110,1.848262,-5.245048,3.393917
132.270110,-1.221742,-7.393405,3.205919
132.370110,-0.651031,-2.502778,-1.689094
132.470110,-1.028455,2.529740,-4.627660
132.570110,1.219845,-8.509854,12.516351
132.670110,2.510602,-0.992098,1.270209
132.770110,0.344679,-3.039560,0.972255
132.870110,-1.333407,1.246095,-5.629593
132.970110,-4.911719,-3.939800,0.753157
133.070110,-2.066310,-2.423592,-2.792311
133.170110,-0.504531,-1.427451,-0.363229
133.270110,0.581784,-1.167417,-1.361204
133.370110,-0.803877,-6.244871,6.793952
133.470110,2.034056,1.981666,-6.227939
133.570110,0.432059,-0.090764,-2.254967
133.670110,-0.533465,-3.968124,5.757402
133.770110,1.674830,-3.652492,6.391613
133.870110,0.833739,-0.216765,-0.753020
133.970110,0.440455,-2.897214,0.642258
134.070110,0.819939,-2.943120,-2.359941
134.170110,-4.742810,3.808349,-11.538871
134.270110,1.155009,-5.620948,7.983879
134.370110,1.488947,0.393814,-6.212245
134.470110,-2.113615,-1.431232,-4.869244
134.570110,2.702258,-3.190771,5.847024
134.670110,1.043833,1.745167,-1.524567
134.770110,0.022284,-1.555416,0.927562
134.870110,-1.651379,1.999468,-6.320629
134.970110,-3.173547,-4.270943,2.193411
135.070110,0.227193,-1.827689,-2.232478
135.170110,-0.861793,2.376151,-3.675026
135.270110,5.638226,-0.027519,5.320702
135.370110,-0.723528,-3.738745,0.615703
135.470110,-1.386879,-1.573383,-5.756608
135.570110,-0.748763,-5.522850,4.688806
135.670110,-1.367005,-1.808670,-2.090435
135.770110,-0.905236,-3.366317,3.650854
135.870110,-0.383612,1.878785,-2.154509
135.970110,-0.196890,-11.201949,13.305467
136.070110,1.125995,-4.431618,2.816208
136.170110,-3.054796,6.046979,-9.590235
136.270110,-1.949789,-1.249260,2.728242
136.370110,4.852768,-3.636609,5.868859
136.470110,-0.194723,-0.015686,-0.678578
136.570110,-2.270424,-5.028044,1.112243
136.670110,-0.947396,-4.246325,3.249552
136.770110,-2.343074,4.745253,-9.406859
136.870110,1.008857,-4.403633,6.727957
136.970110,2.262547,5.877983,-11.282536
137.070110,1.853991,-11.560151,15.001121
137.170110,1.527700,12.197632,-8.384789
137.270110,-3.313175,14.909495,-22.384325
137.370110,-0.281197,2.608868,-12.152745
137.470110,9.753668,-18.587082,38.458824
137.570110,2.506224,6.345149,-13.695709
137.670110,-2.920116,-5.271376,1.771228
137.770110,2.264489,-1.912254,-2.547739
137.870110,2.710732,4.053643,-6.803880
137.970110,0.448675,-12.610173,33.061947
138.070110,-0.931963,6.231688,-16.563084
138.170110,-5.725791,-0.827016,0.699072
138.270110,-4.993790,-4.612355,2.426228
138.370110,1.254488,-0.680647,-1.058391
138.470110,0.385515,-3.724224,5.209496
138.570110,4.463001,-0.504451,3.930299
138.670110,-1.529491,-0.946383,1.731304
138.770110,1.118192,-2.099960,2.012152
138.870110,1.145008,-2.398257,-1.906824
138.970110,0.992011,-1.690225,0.844355
139.070110,0.419004,-2.014261,2.324450
139.170110,-0.761548,-0.683307,-2.528009
139.270110,-6.415658,-1.844782,-1.688583
139.370110,-3.237745,0.082124,-2.131791
139.470110,1.270768,-3.812175,1.600398
139.570110,-1.019977,0.470373,-1.773581
139.670110,6.097135,-0.804882,4.733004
139.770110,-0.358829,4.761564,-9.647749
139.870110,-0.435674,-3.946416,2.941976
139.970110,1.292725,-0.598699,-3.086092
140.070110,-4.537529,0.341363,-4.719569
140.170110,1.800447,-2.206861,1.162500
140.270110,2.391775,-2.962437,2.593323
140.370110,-2.269908,-3.083001,-2.147937
140.470110,-3.497685,-4.411398,6.481480
140.570110,0.446470,1.801520,-3.950113
140.670110,-0.531326,2.257712,-3.906721
140.770110,3.599543,0.686472,1.874069
140.870110,0.659838,-4.170537,2.981321
140.970110,0.487491,2.439273,-8.207221
141.070110,2.112974,-1.101544,0.773509
141.170110,0.079396,-4.834247,2.977935
141.270110,-0.577405,0.131691,0.033680
141.370110,-2.121768,-1.239417,0.134727
141.470110,-3.036916,-5.693763,2.526053
141.570110,-1.072871,-3.193808,4.295929
141.670110,-1.290374,1.846486,-4.463184
141.770110,0.681619,-0.609412,-1.328145
141.870110,4.129501,-3.908170,1.421425
141.970110,3.893994,-6.363428,4.103529
142.070110,0.591885,3.795576,-10.378138
142.170110,-0.305155,-8.521308,10.657088
142.270110,-4.943420,8.700140,-10.547405
142.370110,-3.937636,5.172444,-7.660770
142.470110,0.391671,-4.444163,7.524063
142.570110,0.847242,0.394265,-1.608255
142.670110,0.482953,1.812052,-4.033066
142.770110,0.264176,-1.210187,2.078485
142.870110,-2.373672,9.954184,-18.971182
142.970110,2.175863,13.880245,-24.799213
143.070110,-0.520634,-17.998192,14.786298
143.170110,-4.013668,0.838244,-7.824709
143.270110,3.802268,5.450392,-6.887129
143.370110,-2.785302,-2.515209,1.170896
143.470110,-1.160282,-4.871249,4.075158
143.570110,1.459349,3.089646,-3.769128
143.670110,3.068094,-0.234665,-4.829925
143.770110,3.846982,-2.770733,2.774250
143.870110,-0.635961,0.717005,-1.509385
143.970110,-1.486512,-3.344840,2.596798
144.070110,-3.000920,-5.271819,3.889812
144.170110,-0.361742,-3.431425,0.016191
144.270110,-1.311110,-3.334290,3.682120
144.370110,-1.382067,-0.264932,-0.933997
144.470110,-3.975954,0.000378,-5.514493
144.570110,-2.669715,0.942324,-2.516786
144.670110,0.654860,-6.125018,2.979220
144.770110,0.218345,2.769382,-3.170026
144.870110,4.390237,-2.976326,4.965251
144.970110,1.149956,0.460262,-1.023216
145.070110,0.210159,-2.151651,1.170843
145.170110,-1.601531,1.152339,0.731277
145.270110,1.605356,-0.812813,4.125391
145.370110,2.326047,-0.459402,2.263530
145.470110,2.444712,-0.602892,-0.291822
145.570110,1.505519,-1.125099,0.271333
145.670110,-4.510827,0.341484,-3.505371
145.770110,-2.554601,-1.196829,-1.503180
145.870110,-1.264868,-3.231305,2.237557
145.970110,3.285677,-1.142447,-6.869135
146.070110,-0.757244,1.209918,-2.540969
146.170110,1.217215,-2.687992,3.971951
146.270110,-0.439972,-1.357401,-1.456095
146.370110,2.522414,-7.087909,2.671340
146.470110,1.900629,-2.416231,1.646475
146.570110,0.024216,-1.558934,-0.510084
146.670110,1.922475,0.661318,0.189114
146.770110,1.696856,-4.816077,3.716638
146.870110,2.472403,-3.584609,3.263875
146.970110,0.987635,-1.741249,0.186780
147.070110,1.989035,0.173749,0.378511
147.170110,-0.610458,-13.595171,13.124417
147.270110,1.031437,-0.249352,0.590193
147.370110,-1.227543,-7.774257,5.150544
147.470110,-0.949626,0.749274,-3.204615
147.570110,-1.328044,-6.946471,7.502437
147.670110,0.660769,-2.666384,1.442959
147.770110,-0.825325,-3.474967,1.592675
147.870110,0.404316,2.188031,-5.218746
147.970110,3.190763,1.552961,-4.057942
148.070110,3.295689,-6.468358,9.442267
148.170110,-0.594285,2.240009,-0.408774
148.270110,0.864317,1.101851,-0.075143
148.370110,2.522260,-5.761452,3.389473
148.470110,4.402998,-0.510306,3.211078
148.570110,0.417676,-1.137835,-1.404776
148.670110,2.618566,1.565285,-3.285888
148.770110,1.866925,2.187099,-4.849033
148.870110,1.049877,-4.227086,6.043746
148.970110,-0.869672,0.415973,-3.043294
149.070110,0.966606,0.060826,-2.981344
149.170110,3.116119,-0.469249,0.167973
149.270110,-4.233954,0.271975,-4.777478
149.370110,-1.406090,-2.368306,0.982041
149.470110,-1.333424,-2.122446,-0.131184
149.570110,-1.301549,-2.946703,2.705098
149.670110,5.511729,-2.046784,5.998300
149.770110,0.727228,-1.125466,1.035321
149.870110,0.186376,0.422976,-4.126681
149.970110,-0.253047,-3.157252,2.698835
150.070110,-4.043222,1.352198,-3.802344
150.170110,-0.026704,-1.410277,-0.934784
150.270110,-0.199324,-0.961056,-0.319410
150.370110,-2.282375,-2.794528,2.583764
150.470110,0.949564,-2.917330,0.323131
150.570110,-1.552097,0.916162,-4.057641
150.670110,0.905964,-2.013711,0.089788
150.770110,-0.070831,-3.910699,1.986719
150.870110,0.232834,5.926900,-10.457174
150.970110,-3.444833,-3.813762,2.695132
151.070110,-1.999299,-7.519890,2.759920
151.170110,0.091895,-4.744677,3.070695
151.270110,0.338274,-1.676755,-4.377599
151.370110,1.232598,-0.816525,-4.617792
151.470110,3.148900,-3.161024,3.916863
151.570110,-0.032740,-4.900821,3.657613
151.670110,0.096576,-4.074530,1.076392
151.770110,0.138604,-3.445774,-1.860928
151.870110,-0.621708,-1.537365,-3.219173
151.970110,-0.658657,-4.756334,2.187247
152.070110,-1.124356,-4.469903,-0.160755
152.170110,-2.505132,-0.415342,-2.258064
152.270110,0.056323,-3.181104,-0.836535
152.370110,0.066475,-3.344928,0.862175
152.470110,0.445891,-2.352194,-2.120429
152.570110,0.342918,-3.859982,-1.770281
152.670110,0.146551,-3.481793,-0.256935
152.770110,0.533784,-3.290570,-0.299910
152.870110,1.040452,-1.887347,0.841865
152.970110,0.199303,0.027409,-1.193508
153.070110,0.733315,-0.925256,1.252175
153.170110,0.102416,-4.054568,0.048452
153.270110,-0.155109,0.020049,2.913730
153.370110,0.426532,-0.221744,-1.116266
153.470110,0.779883,0.494171,-4.962499
153.570110,1.077486,-1.308017,1.144945
153.670110,-1.242613,-0.975074,-0.057788
153.770110,0.045168,-0.305653,-0.836915
153.870110,3.987972,3.642950,1.197022
153.970110,-6.708416,-0.355023,-1.430761
154.070110,1.791904,-0.727368,1.876098
154.170110,0.473175,-0.159540,-0.374934
154.270110,0.229115,1.259498,-0.337424
154.370110,0.618049,1.105760,0.164177
154.470110,0.841135,0.418045,-0.059930
154.570110,-1.673900,2.139334,-0.480158
154.670110,0.734535,-0.110440,1.560600
154.770110,-2.107420,0.501076,-0.434683
154.870110,-3.771284,0.347520,-0.357710
154.970110,1.720578,0.744743,0.664669
155.070110,1.769311,0.177093,1.071248
155.170110,-2.219224,0.444484,0.697589
155.270110,0.191098,-0.480133,1.464748
155.370110,0.385742,0.153303,-0.025242
155.470110,0.983985,1.819617,-1.031748
155.570110,1.776253,2.918057,0.514406
155.670110,1.465508,-2.697645,4.776961
155.770110,-2.953321,-0.950923,-1.670590
155.870110,-1.343813,-1.678311,2.314348
155.970110,0.665668,-4.913711,6.503734
156.070110,2.236115,-0.350726,-1.124419
156.170110,-0.645047,-0.917426,0.609678
156.270110,0.691025,-0.052483,0.016107
156.370110,1.828955,-0.328799,1.772452
156.470110,-0.609731,-0.668323,-0.089502
156.570110,1.172881,0.549697,-1.237414
156.670110,-1.531564,0.143882,3.172011
156.770110,-0.801627,2.451782,-1.877356
156.870110,0.386109,-1.494115,1.949274
156.970110,3.965794,-4.315881,5.125008
157.070110,-2.030450,1.599765,-3.984059
157.170110,-1.674641,-3.352059,2.011652
157.270110,1.511342,0.518931,-1.599591
157.370110,0.287142,0.120317,-3.540043
157.470110,1.284034,3.513847,-1.756564
157.570110,1.095177,-0.606533,-1.037843
157.670110,0.270359,-0.233364,1.961493
157.770110,0.323469,-0.248960,2.070198
157.870110,0.616924,0.920410,0.875906
157.970110,2.682606,3.048102,-3.236067
158.070110,0.013274,0.760106,-2.064608
158.170110,-0.828280,-1.712165,-0.697256
158.270110,2.009428,-2.128811,3.497185
158.370110,-0.796679,3.246317,-4.409529
158.470110,0.763800,-1.498750,1.776251
158.570110,-2.567774,-1.308356,-0.389449
158.670110,-2.910725,3.284417,-1.450678
158.770110,0.428559,-3.680182,4.410102
158.870110,1.992270,-1.241583,1.396939
158.970110,0.918026,-1.809191,-1.422185
159.070110,0.574481,-0.478606,-2.103102
159.170110,-1.061700,-0.326075,-0.214933
159.270110,-2.334026,2.848964,-4.644531
159.370110,0.463365,-3.922460,3.171271
159.470110,-2.727670,1.405396,-0.148539
159.570110,0.515495,-0.103538,-0.198837
159.670110,-3.078093,-0.543954,-1.081002
159.770110,0.373767,-1.898591,0.464590
159.870110,4.672371,-0.528714,-0.775791
159.970110,0.816003,0.093038,-0.834118
160.070110,1.116075,-1.077451,-1.280372
160.170110,0.636862,2.403072,-2.116932
160.270110,-1.994079,-0.008587,-1.589911
160.370110,2.920099,-2.919598,2.083196
160.470110,0.997611,1.480377,-1.233865
160.570110,0.683545,-1.549404,1.489455
160.670110,-3.585528,-0.811140,-1.752765
160.770110,0.352013,-0.165187,-2.024388
160.870110,0.150306,-0.937776,1.850534
160.970110,2.740622,-1.478725,0.994581
161.070110,0.746464,-1.335729,0.403245
161.170110,-1.286162,1.062928,-2.106783
161.270110,-1.244393,-0.164751,-1.519386
161.370110,1.312738,-2.652257,0.757758
161.470110,1.548735,-3.600824,3.358044
161.570110,1.400801,-1.823973,2.183644
161.670110,0.875631,-0.041338,-1.269762
161.770110,0.009597,2.142329,-2.507619
161.870110,-0.410574,-2.452858,3.603283
161.970110,3.688834,-0.515356,-0.195701
162.070110,-1.666930,0.870427,-2.378984
162.170110,1.621372,-1.782437,2.928445
162.270110,-1.081560,-2.007366,0.410730
162.370110,-0.725053,-1.178994,1.942787
162.470110,0.836121,0.308285,0.587007
162.570110,3.556755,-2.147954,4.870510
162.670110,-1.147279,-1.511338,1.129567
162.770110,-0.620069,-23.662243,54.014381
162.870110,6.271720,6.013001,-8.297115
162.970110,-2.155777,-7.889758,8.206875
163.070110,0.083832,1.744302,-1.570063
163.170110,1.637210,0.766113,-2.088850
163.270110,3.681630,11.158860,-6.041678
163.370110,0.857023,-9.376963,8.957169
163.470110,3.427458,0.713539,-0.233404
163.570110,3.329877,-0.691280,3.204234
163.670110,0.989691,8.847345,-6.575134
163.770110,3.980757,-7.290833,10.655112
163.870110,0.488119,-7.280146,5.178119
163.970110,1.082611,-6.249165,5.485347
164.070110,3.992618,6.926069,-6.972473
164.170110,-1.184191,1.712646,0.173793
164.270110,1.794333,-4.139020,5.210404
164.370110,1.987031,-5.761380,3.554303
164.470110,0.995532,0.727357,-5.174412
164.570110,1.431352,-8.519594,-3.384616
164.670110,1.017766,7.798545,-11.048595
164.770110,0.558031,-5.840661,7.173235
164.870110,1.043944,12.902491,-21.792990
164.970110,0.424643,2.946007,3.290709
165.070110,-2.573872,-2.702085,0.239161
165.170110,-2.017369,1.147921,-11.721439
165.270110,-1.589631,-9.329843,10.724242
165.370110,-0.649046,7.786707,-11.555857
165.470110,2.961896,-13.450537,17.635111
165.570110,2.159497,11.067773,-11.025904
165.670110,2.315757,1.342244,-2.484638
165.770110,-0.940899,-0.924866,0.097151
165.870110,2.350839,-8.843228,1.621017
165.970110,3.207746,-3.290784,7.194673
166.070110,2.057047,-4.539907,3.989444
166.170110,2.731415,12.802327,-7.094019
166.270110,-1.752755,-5.059618,8.055969
166.370110,-2.510929,-8.912563,8.295664
166.470110,-1.973333,-3.461261,-14.342137
166.570110,0.628295,-4.784253,-1.928086
166.670110,4.779604,-0.603066,4.834635
166.770110,0.320105,17.955782,-4.785391
166.870110,-2.280329,9.326005,-8.989221
166.970110,-2.685483,-7.393180,3.555292
167.070110,0.613619,-8.047094,3.795902
167.170110,7.492908,3.663197,-4.625006
167.270110,4.217868,-1.949876,3.928502
167.370110,-0.303631,-5.378617,1.043094
167.470110,0.961567,-2.063132,-5.871168
167.570110,-6.171099,-4.659949,12.338590
167.670110,-1.553844,2.537575,-9.226509
167.770110,-0.114299,0.459473,1.261172
167.870110,-1.961056,-3.256654,1.472119
167.970110,-4.620286,-8.696210,5.668136
168.070110,-2.358357,5.256294,-14.453986
168.170110,1.505656,10.371519,-14.674586
168.270110,-0.770711,1.013772,-1.565210
168.370110,2.759343,-6.237874,12.729160
168.470110,3.093262,-7.827312,21.752081
168.570110,4.854782,5.633518,-1.720518
168.670110,-4.327430,14.597343,-25.242933
168.770110,-4.718994,-0.697462,-4.903772
168.870110,0.453973,-1.857973,-5.564709
168.970110,1.925927,0.501519,-2.318151
169.070110,3.168558,2.037375,-11.574195
169.170110,1.738055,-16.603266,29.297314
169.270110,-2.223433,11.155887,-17.259110
169.370110,1.901474,-2.474125,-0.471573
169.470110,6.490489,-1.787931,0.521404
169.570110,1.007947,-7.755158,7.987803
169.670110,1.206067,-9.729501,8.550876
169.770110,-5.484943,12.073767,-24.319441
169.870110,-1.581101,-8.236520,11.562560
169.970110,-1.847754,-7.068216,3.125459
170.070110,0.665279,-6.252699,7.131462
170.170110,0.027954,3.421253,-6.507895
170.270110,-0.015530,-8.251027,8.037148
170.370110,-3.069211,-7.481510,-0.560971
170.470110,-0.930916,8.512068,-11.407920
170.570110,1.893669,2.947809,-4.839040
170.670110,-1.648364,-1.973085,2.063071
170.770110,0.017939,-3.279290,-1.713371
170.870110,-4.465981,-0.404833,-1.195895
170.970110,0.144857,-1.663076,4.506724
171.070110,-0.706785,-8.659633,6.292080
171.170110,-1.253591,-9.157883,11.825313
171.270110,-2.428311,5.966729,-8.038272
171.370110,-4.987278,-10.384300,5.445852
171.470110,2.314681,-6.799536,15.645084
171.570110,-1.986433,8.451901,-8.788547
171.670110,-1.472962,-10.270713,4.784599
171.770110,-2.576542,-0.510704,-2.860937
171.870110,2.712745,0.367470,-1.287425
171.970110,-1.893080,-5.593425,3.591427
172.070110,0.262085,-1.828542,-10.547774
172.170110,-1.431808,2.769218,-15.066528
172.270110,3.415835,-10.553106,11.787657
172.370110,0.643033,-0.138218,-4.090424
172.470110,0.092009,-2.753515,3.117700
172.570110,3.875279,5.422325,-3.237857
172.670110,-1.784754,-1.681307,1.855876
172.770110,1.689413,-1.382706,-2.700151
172.870110,1.570472,1.577422,0.357134
172.970110,-2.067441,3.351365,-4.489979
173.070110,-2.546292,-15.872803,23.514971
173.170110,1.816704,3.529096,-9.805610
173.270110,-1.431618,1.254707,-3.532817
173.370110,2.999857,-11.311628,11.783604
173.470110,0.699795,4.416826,-6.179877
173.570110,-3.603474,7.301021,-3.273314
173.670110,1.180307,-18.682354,21.672750
173.770110,-1.065148,-2.512758,-0.258169
173.870110,3.837936,10.267756,-0.977397
173.970110,-4.612636,-5.227143,7.081361
174.070110,-2.485406,-12.308213,18.486296
174.170110,1.833984,0.839633,4.672317
174.270110,-1.244701,-8.433850,12.557366
174.370110,0.660405,-3.670935,1.715660
174.470110,-0.271770,11.389949,-9.894328
174.570110,3.101886,-7.970787,3.340984
174.670110,0.937075,-6.189796,2.528346
174.770110,-0.245396,-2.054135,1.675036
174.870110,-4.505746,-16.413664,-0.287511
174.970110,-3.570014,-1.230152,-5.677096
175.070110,1.750047,-3.156566,4.212274
175.170110,-0.115264,-13.320455,11.795213
175.270110,0.545461,-2.296009,-4.114942
175.370110,5.642229,6.779947,-5.150055
175.470110,1.541956,-13.696682,14.568235
175.570110,0.185127,-2.308768,1.042641
175.670110,-0.958286,-4.190135,1.648264
175.770110,4.275959,-11.325288,9.847757
175.870110,-1.078865,0.521156,-7.898222
175.970110,-0.339125,7.393191,-7.237618
176.070110,1.932207,-27.902081,42.939964
176.170110,-2.312340,6.866488,-10.245245
176.270110,3.209395,-3.463575,7.244522
176.370110,-0.078825,-9.627175,9.075650
176.470110,3.460932,0.573500,-5.290105
176.570110,-0.835848,-0.785220,-2.640342
176.670110,-0.475561,-5.938815,5.324192
176.770110,-1.302818,0.743070,-3.511595
176.870110,2.942480,5.501508,-2.630474
176.970110,-0.620580,-4.960768,-3.009676
177.070110,-3.421759,0.597553,-1.452100
177.170110,-2.775801,-7.111174,6.465156
177.270110,1.243095,1.153546,-2.422783
177.370110,-0.597748,6.840629,-10.472160
177.470110,0.049379,-1.604819,6.553833
177.570110,-7.588893,-3.176709,-0.654356
177.670110,-1.319271,2.020076,-8.825668
177.770110,4.554338,9.243917,-15.784625
177.870110,1.177233,-12.048330,11.517509
177.970110,6.441433,7.116440,-9.743200
178.070110,-4.076321,4.893735,-12.485806
178.170110,3.378237,2.859354,-1.893457
178.270110,-0.197643,-8.457349,3.068003
178.370110,0.020138,-9.039073,3.072056
178.470110,3.704175,-0.416812,1.472453
178.570110,-0.800451,-0.628394,4.004542
178.670110,-0.262539,-6.219217,0.328498
178.770110,0.364361,8.539990,-11.081453
178.870110,6.047490,-1.176633,0.558704
178.970110,-1.395757,-5.428458,3.626424
179.070110,0.831652,-5.082330,2.121777
179.170110,-0.290944,6.050543,-13.841235
179.270110,0.667470,-3.951646,-0.978690
179.370110,-1.725695,-20.240404,1.965136
179.470110,1.868340,-12.835142,18.404039
179.570110,-6.393256,-30.365992,14.893525
179.670110,7.396699,-3.586432,-21.241316
179.770110,2.407020,-13.363482,7.550100
179.870110,10.189255,-22.384052,-15.514285
179.970110,8.932236,-9.090196,4.071305
180.070110,-0.435771,-5.755670,4.702449
180.170110,3.731037,-12.364469,13.829373
180.270110,3.242979,-1.369547,-1.980648
180.370110,-0.457688,-8.698799,9.428083
180.470110,0.958037,7.009743,-14.634092
180.570110,-2.346792,-13.207202,12.287420
180.670110,-0.704151,-5.342419,5.798330
180.770110,0.203429,4.550518,-13.140240
180.870110,-1.351903,-1.587851,-0.651392
180.970110,1.049053,-8.388806,6.410054
181.070110,2.929323,-4.816415,1.383785
181.170110,-2.778736,4.270360,-9.657975
181.270110,0.228123,-7.365156,5.130399
181.370110,-1.441115,3.696999,-13.762821
181.470110,-2.461577,-6.638446,10.525593
181.570110,1.302824,-2.262040,-4.426339
181.670110,0.417620,-0.475002,0.438456
181.770110,0.687201,-3.381234,-0.497086
181.870110,-0.889003,4.644981,-17.685947
181.970110,3.085566,-11.457114,7.952836
182.070110,-0.817895,1.703001,-0.742098
182.170110,0.653329,-2.577065,3.574207
182.270110,-3.249523,1.425800,-6.402194
182.370110,-0.975840,-15.892291,15.145894
182.470110,-2.200747,-1.326827,-2.007955
182.570110,1.424003,7.606986,-4.212276
182.670110,-1.516181,-9.764104,2.397930
182.770110,0.922927,-15.035011,24.891766
182.870110,-0.742360,11.104456,-16.935917
182.970110,3.752774,0.381439,-0.544696
183.070110,-3.009180,-15.583633,17.480497
183.170110,-1.250639,3.975750,-9.049353
183.270110,0.739360,8.220787,-11.811089
183.370110,0.988391,-14.228147,10.723486
183.470110,6.676630,-4.363760,2.499427
183.570110,-2.874165,-5.785545,2.448749
183.670110,-1.558384,-11.112582,10.740993
183.770110,-0.421102,3.479488,-6.948224
183.870110,5.922716,-8.487754,12.882446
183.970110,-0.396382,-11.878482,10.156505
184.070110,-0.492159,-2.702316,1.801298
184.170110,-2.439712,0.185117,2.252686
184.270110,-0.941486,-10.422244,5.360795
184.370110,2.176578,0.841504,-4.249212
184.470110,-1.429648,4.511490,-7.568611
184.570110,2.971653,-6.860799,9.180239
184.670110,1.570437,1.866775,-3.416703
184.770110,3.861787,0.542175,-3.430203
184.870110,-0.719694,-10.969923,8.716381
184.970110,0.154991,-4.457712,1.607681
185.070110,0.851432,-4.276834,0.436902
185.170110,1.306862,-5.275857,10.044907
185.270110,3.787660,-18.216200,19.487717
185.370110,-1.726298,6.490464,-11.526235
185.470110,2.714792,14.128016,-20.135145
185.570110,2.254401,-12.225996,4.964236
185.670110,3.795901,-2.292965,-1.861880
185.770110,1.057629,0.499021,-3.254981
185.870110,-1.803321,-8.228513,-0.915100
185.970110,-1.020012,-8.002479,9.792645
186.070110,-1.134564,-5.296216,6.610142
186.170110,0.507311,-7.144440,2.505591
186.270110,-2.106485,-6.250713,5.521474
186.370110,1.248629,4.309177,-10.635607
186.470110,-1.717033,2.227740,-2.035088
186.570110,5.936787,-10.459306,9.766792
186.670110,1.492891,2.880326,-9.375465
186.770110,0.927579,-7.006290,0.326815
186.870110,0.297466,-4.861794,2.516116
186.970110,-5.591578,4.163338,-9.770337
187.070110,5.593314,0.189424,2.032511
187.170110,-2.020001,-1.957217,-1.535970
187.270110,-0.137627,-2.462484,-2.719607
187.370110,-0.867134,-3.717106,0.819713
187.470110,3.896137,-2.540536,-2.642606
187.570110,-1.468667,-10.425072,19.279324
187.670110,-6.041447,4.557731,-8.639620
187.770110,-0.985688,9.371922,-16.614666
187.870110,-2.689867,-27.884939,21.419657
187.970110,2.644328,10.331442,-21.528006
188.070110,5.297268,6.386372,-3.788281
188.170110,-2.331883,-10.299526,5.482731
188.270110,-3.149791,-9.194915,6.303844
188.370110,-0.243984,7.589077,-12.101808
188.470110,5.183409,-2.376230,3.445101
188.570110,-0.327998,-7.113413,4.394986
188.670110,-0.018174,-1.202327,-5.199885
188.770110,-0.959436,-5.088992,3.809304
188.870110,0.837684,4.440211,-4.938588
188.970110,-0.870906,4.340402,-5.323777
189.070110,-3.821543,-23.637690,23.755192
189.170110,-5.401052,12.056354,-21.003727
189.270110,-1.689509,-1.526160,4.593910
189.370110,2.106690,-2.630538,10.134879
189.470110,-3.124529,-9.758291,-0.035846
189.570110,-2.070224,9.563944,-4.438680
189.670110,-4.434672,2.307115,-0.211907
189.770110,2.232973,9.844475,-3.444432
189.870110,-1.859780,-15.480528,15.474144
189.970110,-2.533880,-12.093682,7.268952
190.070110,1.547967,-4.187220,-4.093146
190.170110,0.442909,8.539249,-14.125594
190.270110,3.043174,0.209088,3.487710
190.370110,1.885109,-9.721402,6.260779
190.470110,-0.118056,2.973182,0.222684
190.570110,-2.853330,-13.278765,5.251503
190.670110,-0.786626,-0.429034,-3.051389
190.770110,1.453332,-0.971429,1.639723
190.870110,0.067635,-8.839798,11.413263
190.970110,0.497419,0.052437,-2.408221
191.070110,-1.390122,17.576176,-26.890490
191.170110,-1.326662,-13.716043,12.518201
191.270110,2.218322,-7.548592,9.037622
191.370110,-5.611429,-0.732906,-4.512663
191.470110,-3.575396,-10.859095,9.990380
191.570110,-0.871268,-4.550355,0.315026
191.670110,-1.480257,-3.346577,-0.780027
191.770110,-2.341226,-0.840668,-5.873475
191.870110,-0.470222,-7.268901,1.775729
191.970110,0.495122,2.790044,-6.618485
192.070110,0.966285,-2.401670,3.498932
192.170110,-0.553302,-3.963574,1.022275
192.270110,-3.976070,-9.915042,20.111849
192.370110,-4.051965,-1.909601,-2.565584
192.470110,-3.655453,-5.175866,-4.348447
192.570110,-3.416112,1.147190,-1.359997
192.670110,-4.636173,-10.497476,3.198390
192.770110,0.259503,-1.412498,0.994637
192.870110,-0.101171,0.722503,-9.098563
192.970110,-4.504539,0.065881,-2.827805
193.070110,-0.705531,-0.876239,1.927452
193.170110,-7.372547,0.318352,5.902388
193.270110,-4.416961,-2.261879,-1.520135
193.370110,-4.315948,-2.488197,0.259943
193.470110,-1.314296,-2.108967,1.511993
193.570110,-2.156296,1.275047,0.711514
193.670110,-2.944355,0.539276,0.826775
193.770110,-1.216579,-0.608425,2.409018
193.870110,-1.985818,-3.754997,4.166368
193.970110,-0.619852,1.256891,-1.486955
194.070110,-1.589784,2.188305,-1.581045
194.170110,-0.429729,1.570341,-0.463766
194.270110,-0.978326,0.765069,-0.147943
194.370110,0.525245,0.350791,0.052766
194.470110,0.311725,1.494775,-1.356132
194.570110,-2.908464,-1.019156,0.083229
194.670110,-3.626291,-2.048460,-1.856987
194.770110,-4.178732,-1.108785,0.851198
194.870110,-0.973392,-1.469652,2.086561
194.970110,-3.780581,-4.975916,0.981706
195.070110,1.118546,0.284341,-0.037220
195.170110,-0.247530,-1.932733,0.814891
195.270110,-2.898905,-3.032686,2.237037
195.370110,-1.162068,-2.932105,0.945703
195.470110,-2.367158,-1.697138,0.076000
195.570110,-0.761342,-2.313122,-0.734236
195.670110,-2.011771,-1.975373,-0.528076
195.770110,-1.028407,-0.477259,0.951239
195.870110,-1.002589,0.044695,0.627254
195.970110,-1.324503,1.483788,-0.423831
196.070110,-1.419659,0.288005,0.239297
196.170110,-0.818855,-0.099683,0.313880
196.270110,-1.872148,-0.216258,0.206125
196.370110,-0.122871,0.201334,0.246010
196.470110,-0.793876,0.241653,-0.000734
196.570110,-0.201991,0.482518,0.303697
196.670110,-0.614139,1.119748,0.033586
196.770110,-0.992108,0.066376,0.149920
196.870110,-0.788027,-0.053930,0.222789
196.970110,1.918186,-0.187977,0.262895
197.070110,-1.401772,0.899750,-1.471390
197.170110,-0.749014,-0.369512,0.906938
197.270110,-0.902819,0.050394,0.167791
197.370110,-2.015790,-1.530913,1.890178
197.470110,-0.428846,0.371714,-0.591497
197.570110,0.077519,0.556861,-0.580951
197.670110,0.459827,-0.543387,0.868108
197.770110,0.685787,0.570305,-0.023901
197.870110,-1.982089,0.388863,-0.016045
197.970110,-1.488677,-0.134925,0.389814
198.070110,2.302680,1.187126,-1.055727
198.170110,0.533824,-1.483164,1.978779
198.270110,-0.109261,-0.084164,0.097253
198.370110,-0.765898,1.000525,-0.549606
198.470110,-0.337518,0.585867,-0.313121
198.570110,-0.553762,0.438486,0.380736
198.670110,-0.724899,0.152840,0.225485
198.770110,0.316202,-0.032029,0.291739
198.870110,0.053108,-0.030395,0.197939
198.970110,0.088917,-0.067092,0.168500
199.070110,0.081001,0.076902,0.077829
199.170110,0.394663,0.196654,0.002903
199.270110,0.072922,0.068907,-0.044285
199.370110,0.081986,0.021647,0.103141
199.470110,0.166157,0.282797,-0.026518
199.570110,0.310969,0.108212,0.092359
199.670110,0.479106,0.033241,0.099891
199.770110,-0.091335,-0.147265,0.210739
199.870110,0.126258,0.175099,0.030065
199.970110,0.017486,-0.105943,-0.008481
200.070110,-0.213959,-0.328636,0.122512
200.170110,-0.092120,-0.049878,-0.002169
200.270110,-0.452932,-0.281114,-0.087492
200.370110,-0.392885,-0.418100,0.105108
200.470110,1.131993,-1.496339,6.894893
200.570110,0.804444,0.361927,0.582439
200.670110,0.677105,0.559889,0.472773
200.770110,-0.559559,1.377831,0.867947
200.870110,-0.194986,1.074711,0.105495
200.970110,-0.168952,1.038060,0.381568
201.070110,-0.551905,0.164406,0.240087
201.170110,-2.330548,-1.036029,0.619284
201.270110,-0.265761,-2.445284,0.856842
201.370110,1.888414,0.063479,-4.048855
201.470110,0.540427,1.998845,2.285109
201.570110,6.502272,0.735041,0.581653
201.670110,2.978198,-1.032631,3.095919
201.770110,-4.247475,2.020101,-0.759867
201.870110,-1.419002,0.941719,-0.868820
201.970110,-0.392806,1.524691,0.409493
202.070110,-1.615840,-5.688622,7.316408
202.170110,0.004496,-3.539023,3.305715
202.270110,0.692343,-0.882551,1.789625
202.370110,-3.383296,-0.004831,-0.643879
202.470110,-1.423184,-1.354690,0.112724
202.570110,0.502181,-1.223029,1.458961
202.670110,-0.304548,1.058832,-1.091070
202.770110,0.577641,0.948645,-1.496554
202.870110,-0.659861,0.740649,-0.904330
202.970110,1.973867,1.026421,0.028010
203.070110,-0.051076,-1.150910,1.367783
203.170110,2.299022,2.054160,-1.399813
203.270110,-1.060821,-2.286910,4.701402
203.370110,-0.126658,-5.428897,6.759948
203.470110,-0.442015,1.041586,-1.925961
203.570110,-0.221817,0.936295,-0.693187
203.670110,-1.607098,0.060247,-1.210673
203.770110,-0.106386,1.129967,-1.460528
203.870110,2.914868,0.416325,-1.375618
203.970110,-1.149078,-2.674697,1.436295
204.070110,-0.433008,-0.293249,-0.068355
204.170110,-1.823290,0.823974,-0.834372
204.270110,-2.720150,-0.102461,-1.874428
204.370110,-1.188270,0.725457,-2.161068
204.470110,0.574534,1.062757,-1.046698
204.570110,-1.331472,-1.106724,1.922336
204.670110,-1.221464,0.937940,-0.346722
204.770110,-2.991197,0.853796,-0.799797
204.870110,-4.742697,-4.496162,-18.435558
204.970110,-6.937217,-4.096052,1.231535
205.070110,1.918775,4.627483,-7.418451
205.170110,-2.159427,-5.030472,6.480682
205.270110,-1.335542,6.477220,-30.029968
205.370110,-1.259064,-5.449428,8.465554
205.470110,-2.385264,-2.074593,-0.636098
205.570110,0.496068,2.164338,0.369712
205.670110,0.295442,-0.141843,2.339620
205.770110,-3.345818,-2.651737,4.164104
205.870110,-1.647172,1.324209,-2.725338
205.970110,-2.400816,-1.497508,1.833542
206.070110,2.488567,1.272049,-1.154820
206.170110,1.063385,-2.117732,2.350047
206.270110,-4.061661,0.219301,0.051023
206.370110,-3.596232,-0.635158,0.511387
206.470110,-2.520771,-0.162032,0.656647
206.570110,-0.275100,-0.729582,-0.023880
206.670110,-4.556129,1.282996,-1.681214
206.770110,1.897820,-0.467553,3.182957
206.870110,2.722695,6.026451,-7.364587
206.970110,-5.882221,-6.047908,6.120645
207.070110,-3.669456,-0.963944,-1.241606
207.170110,2.264383,-3.928780,3.127190
207.270110,-2.425597,4.478345,-6.726064
207.370110,0.358446,-3.176052,4.320037
207.470110,-0.332033,-0.392285,-1.509967
207.570110,0.941674,-1.762049,1.898326
207.670110,-2.666796,1.142010,-0.145597
207.770110,0.307627,0.801223,1.159674
207.870110,0.886806,1.189578,-0.150850
207.970110,0.428616,1.431222,-5.456003
208.070110,1.404644,-1.310614,2.115815
208.170110,-1.115103,-4.186368,4.796856
208.270110,-1.976574,4.998803,-5.562836
208.370110,0.322256,-3.912889,5.636758
208.470110,0.280569,1.232597,-0.057821
208.570110,1.435927,0.157930,-1.288850
208.670110,0.098203,-1.557161,0.927182
208.770110,-1.245500,-1.072623,4.957227
208.870110,2.506941,-3.107564,1.777724
208.970110,1.213153,0.994119,-3.307166
209.070110,-0.547482,-0.743062,-0.632799
209.170110,-0.713215,-0.909765,-0.292532
209.270110,1.798725,3.141775,1.250270
209.370110,2.355855,-0.249214,0.790558
209.470110,0.214299,-1.368034,-0.421057
209.570110,0.321994,-0.541297,1.468477
209.670110,0.272751,-0.894049,0.582603
209.770110,-1.456267,-0.322141,-0.573496
209.870110,-2.905703,1.291878,-0.871421
209.970110,-1.656272,-0.140479,-1.433820
210.070110,-0.909425,-3.908642,3.645739
210.170110,-0.458050,0.876483,-0.979379
210.270110,-0.611023,0.174858,-0.527116
210.370110,4.156336,-2.376967,3.853040
210.470110,0.882175,-3.346672,2.892990
210.570110,-0.688905,0.759903,-1.341598
210.670110,0.498574,1.374452,-1.269764
210.770110,0.804436,0.922104,-1.620250
210.870110,3.752506,-0.105378,-2.617273
210.970110,0.711907,1.145907,-3.410955
211.070110,0.633264,0.981446,-1.498014
211.170110,-0.619288,-2.046699,1.620236
211.270110,-0.578641,-0.582279,-0.782435
211.370110,5.125149,-1.205316,0.541088
211.470110,-2.480133,2.640844,-4.298456
211.570110,-0.672104,-1.555978,0.799400
211.670110,-1.033101,-2.042912,1.817618
211.770110,-2.604604,-0.674482,0.352125
211.870110,3.318939,-0.834876,-0.754086
211.970110,-3.771743,0.461088,-1.529783
212.070110,1.236945,1.110844,-1.305983
212.170110,0.643440,-0.447483,0.948958
212.270110,0.060991,0.609865,-0.650588
212.370110,0.046165,-1.222984,-1.212526
212.470110,-2.243524,1.810747,-1.524226
212.570110,1.617439,-1.302941,0.661348
212.670110,0.446153,-0.809690,1.560619
212.770110,-0.431748,-0.008134,-0.018209
212.870110,-0.151005,-2.393209,-1.498065
212.970110,-0.713573,2.343812,-1.432560
213.070110,0.194805,1.645763,-1.691537
213.170110,-0.084561,-0.375415,-0.285919
213.270110,-0.179025,-0.883413,-0.095828
213.370110,-0.134422,-2.517638,-1.169656
213.470110,-0.669911,2.643487,-4.297452
213.570110,-0.600474,6.100982,-9.447667
213.670110,0.678525,3.775634,-4.642604
213.770110,1.562557,-0.855500,1.524271
213.870110,1.926046,-2.602799,0.452704
213.970110,2.776572,-1.624702,0.000825
214.070110,-0.359833,3.758968,-4.549043
214.170110,-0.625716,-0.366499,-1.542312
214.270110,-1.082566,-1.701911,-0.499943
214.370110,0.455216,0.206848,-0.901144
214.470110,2.625520,-4.252333,4.208241
214.570110,-1.676695,-0.620447,-0.758663
214.670110,0.612412,1.016362,-2.269795
214.770110,-0.284512,-1.053539,0.613385
214.870110,-3.806569,2.895069,-4.056781
214.970110,0.477427,-2.046188,1.361467
215.070110,0.725926,1.092069,-1.542935
215.170110,-0.251540,-0.573476,0.604065
215.270110,0.275500,-0.193174,0.466445
215.370110,-4.199675,1.497942,-4.524154
215.470110,-0.623297,3.740026,-4.600612
215.570110,-1.235482,-3.954544,4.088404
215.670110,0.882472,5.665709,-8.637286
215.770110,-0.137845,-4.241084,4.916481
215.870110,-0.814179,-1.776304,1.720699
215.970110,-2.507525,1.767875,-6.325962
216.070110,0.400812,-1.037015,1.827159
216.170110,2.665919,0.190877,-1.389150
216.270110,1.112113,0.076625,1.463126
216.370110,4.121778,-2.653820,4.984982
216.470110,-1.139429,-2.253716,1.429800
216.570110,-0.778359,0.462463,-2.985713
216.670110,-0.986149,-0.781619,-1.615700
216.770110,1.218711,2.644899,0.975546
216.870110,-1.401392,-1.846842,3.085000
216.970110,0.334437,-0.146692,2.827232
217.070110,0.156984,-0.300063,-0.853225
217.170110,-3.003343,2.767655,-5.835598
217.270110,1.301311,-4.571992,3.781822
217.370110,-0.708069,1.071789,-3.608529
217.470110,-0.307479,1.047387,-1.295595
217.570110,-0.212646,0.282370,-0.386081
217.670110,0.094465,0.943840,-1.288539
217.770110,2.554158,-4.596604,6.178306
217.870110,0.464827,-10.422780,10.258937
217.970110,-1.928447,1.084879,-2.869304
218.070110,-0.070295,-2.668440,3.468507
218.170110,1.078555,3.653826,-0.911809
218.270110,-7.000545,0.037589,-2.725667
218.370110,-0.011167,1.012203,-0.366190
218.470110,2.928066,-2.203856,2.597879
218.570110,-0.108962,1.976759,-2.290192
218.670110,1.843973,-0.375012,2.023630
218.770110,3.013566,-2.249080,2.172592
218.870110,-1.278653,-0.343875,-0.900819
218.970110,1.974061,2.529433,-2.972862
219.070110,0.890987,0.582769,-1.762317
219.170110,-0.454133,-1.305330,1.476952
219.270110,-0.804930,1.286968,0.436268
219.370110,0.614110,-1.432459,1.163224
219.470110,0.559368,-0.999623,-0.753936
219.570110,0.007371,0.514510,-0.975591
219.670110,1.660321,-1.674392,-0.504052
219.770110,-1.795713,1.391488,-1.661284
219.870110,0.832547,-0.156756,1.738998
219.970110,0.526498,-0.204009,0.933732
220.070110,-1.019178,-2.194757,1.313057
220.170110,-3.685703,1.127253,-4.854338
220.270110,1.838490,-0.051883,-0.923744
220.370110,0.170009,-2.847602,1.583459
220.470110,0.879491,0.739094,0.207935
220.570110,1.924385,2.864237,-2.591287
220.670110,3.580530,-2.050559,5.062895
220.770110,-0.955506,-3.463898,1.444708
220.870110,-0.291011,2.032351,-3.152995
220.970110,-2.746053,0.842297,-2.831693
221.070110,0.827517,0.605299,-1.608109
221.170110,-4.326025,-4.044429,-3.947553
221.270110,0.860723,-10.306178,13.285344
221.370110,0.140147,2.668850,-4.794806
221.470110,1.761671,1.267708,-1.842042
221.570110,-1.996638,-3.044933,2.218521
221.670110,0.422885,-2.131477,0.965125
221.770110,0.777996,0.024168,1.671672
221.870110,1.834859,0.471327,-2.091781
221.970110,1.152580,-0.264639,1.880773
222.070110,-0.073359,1.713881,-3.244004
222.170110,-0.225107,1.171111,-3.525507
222.270110,0.766916,0.614917,-0.667437
222.370110,0.702417,-1.541207,-2.443746
222.470110,-1.272598,5.196376,-4.376634
222.570110,-3.160111,1.209057,0.337222
222.670110,0.991441,-0.331214,1.885494
222.770110,0.321930,0.484852,-1.527590
222.870110,0.172111,-0.304187,0.717755
222.970110,1.888087,-2.578502,1.982960
223.070110,0.204492,-4.419309,4.527141
223.170110,-0.109315,-0.780437,-0.214936
223.270110,1.061419,2.566237,-4.155691
223.370110,0.550888,1.796467,-1.600143
223.470110,3.469169,-2.851909,4.174664
223.570110,0.485564,0.901225,-0.856588
223.670110,-0.704099,-1.440065,-1.337596
223.770110,-2.485665,-0.955941,-1.474684
223.870110,-0.104592,-2.689483,3.433733
223.970110,1.356629,-1.684995,2.134855
224.070110,-1.094587,0.222373,-0.653482
224.170110,0.668689,0.763217,-2.340229
224.270110,-1.198920,0.907799,-1.639646
224.370110,3.993546,-1.172655,2.161409
224.470110,-1.379347,-1.161303,1.769153
224.570110,1.074480,0.588750,-0.590660
224.670110,0.066847,-0.078063,-1.190627
224.770110,1.620323,-2.765000,3.233234
224.870110,2.789740,-0.443326,1.853990
224.970110,-0.340522,-0.261869,-0.565708
225.070110,-0.183046,1.573534,-0.193106
225.170110,-0.302570,-1.039625,2.926037
225.270110,4.889303,-1.278812,4.107435
225.370110,-1.123157,-1.118378,1.090606
225.470110,-1.299958,-1.710704,0.561275
225.570110,0.129592,-1.332889,-0.890198
225.670110,2.598011,0.000478,-0.039456
225.770110,1.115264,-4.584910,5.210263
225.870110,0.694626,-0.373248,-1.703905
225.970110,2.371289,2.275559,-4.683484
226.070110,-0.335796,-2.560523,2.203492
226.170110,1.915151,-3.345494,4.900181
226.270110,-1.794313,0.975432,-3.305732
226.370110,0.067586,-0.826688,0.974133
226.470110,-0.547896,-0.721865,-2.698049
226.570110,1.408643,0.149966,-1.170144
226.670110,3.663337,-3.293913,5.134010
226.770110,0.616902,-1.394266,1.116800
226.870110,1.109482,0.217317,-2.170326
226.970110,-0.130677,0.900678,0.703232
227.070110,4.699986,-1.435575,4.223888
227.170110,0.096417,0.272800,-2.161022
227.270110,-0.403681,-2.238653,1.852314
227.370110,0.316070,-0.979122,1.147499
227.470110,0.955819,2.154320,-4.925760
227.570110,1.106418,-0.553126,2.884771
227.670110,2.007053,0.612843,-4.289485
227.770110,-0.353415,3.099016,-1.793324
227.870110,0.737384,0.525089,0.694587
227.970110,2.091396,0.966268,0.747395
228.070110,1.879961,-2.101642,5.548282
228.170110,0.584729,-2.087721,0.256833
228.270110,-0.140395,1.381791,-4.849391
228.370110,2.771007,-1.432629,-0.756352
228.470110,0.885347,-8.107005,11.376919
228.570110,0.860423,4.285562,-5.783408
228.670110,-0.589302,-1.140865,-1.750116
228.770110,-0.404484,-3.434641,5.717797
228.870110,2.169420,-1.473593,-1.085495
228.970110,1.139666,1.381594,-5.126160
229.070110,-2.356683,-1.979541,0.610135
229.170110,-2.183485,1.748996,-2.978151
229.270110,2.207644,-2.728295,0.622198
229.370110,-0.391612,1.008546,-3.081511
229.470110,-0.008829,-0.661510,-1.417778
229.570110,-1.635911,-2.693186,-0.090152
229.670110,0.068187,1.497800,-3.953245
229.770110,-2.695446,3.800796,-8.281266
229.870110,-0.440836,-2.538021,2.045977
229.970110,1.282459,-2.165709,2.327240
230.070110,-0.401444,-0.868647,0.422244
230.170110,0.936566,-0.578176,0.447663
230.270110,0.352127,-1.007944,2.170890
230.370110,1.193269,-0.405618,1.044896
230.470110,-0.576935,-1.625388,2.332909
230.570110,0.244856,-0.712504,0.787670
230.670110,-2.785800,-1.150625,3.068827
230.770110,0.934052,-3.620600,4.664062
230.870110,0.550900,-2.472958,1.484567
230.970110,0.052951,0.468220,-0.377387
231.070110,-0.234028,-1.608511,3.953216
231.170110,0.443392,-2.245044,1.806941
231.270110,-1.203995,3.038316,-5.974013
231.370110,-1.170522,-1.993543,1.591838
231.470110,0.195381,1.959550,-3.278169
231.570110,2.101118,-0.169493,0.226405
231.670110,-2.970482,-0.388704,-1.021622
231.770110,-0.777502,3.311229,-1.681792
231.870110,-0.057900,-0.267028,1.019456
231.970110,-2.676901,-0.659404,0.469614
232.070110,-1.238229,-2.675540,5.651659
232.170110,2.087871,-4.815595,4.187440
232.270110,-0.774505,-1.199004,0.380761
232.370110,2.077122,1.243456,-1.959222
232.470110,-2.008969,-0.769892,-0.438329
232.570110,4.695848,-1.429726,6.335878
232.670110,-3.244656,0.949796,-3.607410
232.770110,0.359860,-4.065158,4.413593
232.870110,-5.728125,6.984583,-16.017071
232.970110,4.161222,-5.569236,4.905575
233.070110,5.165433,-2.254966,4.940491
233.170110,-2.518626,-0.170257,0.007176
233.270110,-1.497481,-2.159796,2.410485
233.370110,-2.040311,0.435781,-0.981790
233.470110,5.939868,-1.702555,-0.847422
233.570110,-3.107821,13.140521,-24.369289
233.670110,3.640758,-12.464084,10.361717
233.770110,-0.842673,-0.283255,1.014168
233.870110,-1.258739,10.338443,-17.656952
233.970110,2.902623,-7.901885,6.730568
234.070110,-0.209495,-4.697178,5.344891
234.170110,-0.747582,5.546788,-6.134286
234.270110,0.523299,-7.012440,9.234979
234.370110,1.113718,-2.052219,-0.255631
234.470110,2.056011,5.112237,-0.945916
234.570110,3.451264,-4.466746,4.585720
234.670110,1.550685,-1.843326,2.832253
234.770110,3.189838,0.195982,-0.348715
234.870110,1.064775,-1.673706,3.729421
234.970110,1.633359,-3.003986,3.229741
235.070110,2.700963,1.434211,-2.712893
235.170110,5.360320,-1.892177,2.435634
235.270110,0.763323,-0.312383,-2.314009
235.370110,0.683439,-4.720310,4.174414
235.470110,2.525396,3.454241,-8.252148
235.570110,2.015920,11.172761,13.024117
235.670110,1.708096,7.989018,-3.128186
235.770110,3.073831,-8.377751,4.226135
235.870110,8.088150,-1.352997,4.211882
235.970110,4.676573,4.458922,-4.997912
236.070110,-1.805818,-0.981048,-5.514240
236.170110,1.318967,-14.608211,16.038240
236.270110,-0.278234,-10.823766,4.248837
236.370110,-5.717758,-5.959142,5.565224
236.470110,-1.416548,2.071781,-8.119543
236.570110,6.717621,7.724194,-10.809246
236.670110,6.133051,5.372358,-9.218024
236.770110,1.639878,-11.032482,13.344225
236.870110,0.257528,-1.351862,-1.061652
236.970110,0.167538,-5.778502,2.311412
237.070110,-0.457615,-3.006470,2.164105
237.170110,3.858232,-2.661893,-0.501021
237.270110,-0.859201,-8.163349,8.494687
237.370110,-3.438978,1.229121,-7.411764
237.470110,1.696235,0.719881,-3.015448
237.570110,-4.158682,-0.161963,1.193909
237.670110,-2.240187,-8.906655,16.230682
237.770110,-0.481401,-8.572212,14.988011
237.870110,0.140424,18.375553,-19.108675
237.970110,-3.696222,-10.024881,6.235869
238.070110,1.782411,-10.565439,6.027827
238.170110,4.052801,-2.839439,2.044279
238.270110,-3.609419,3.202609,10.613235
238.370110,-3.458016,8.892037,-19.870625
238.470110,1.774436,-14.304522,16.173624
238.570110,-3.557639,6.617831,-15.837025
238.670110,2.396747,6.935727,5.211524
238.770110,-0.374313,-5.319398,3.064058
238.870110,2.812282,8.304384,-30.124973
238.970110,3.101781,2.516549,-17.880993
239.070110,6.229574,-8.017587,23.372332
239.170110,0.853721,9.685964,-20.982077
239.270110,5.757388,-6.766661,10.581451
239.370110,7.531254,5.685589,-9.993870
239.470110,2.016172,-5.902939,4.621707
239.570110,-1.126705,2.476927,-8.144376
239.670110,2.107645,-6.647647,15.834816
239.770110,-2.258500,7.523442,-15.611506
239.870110,0.139915,-1.726173,4.051723
239.970110,0.805629,-10.969261,18.297098
240.070110,-3.161190,4.519609,-1.161299
240.170110,1.038618,0.664446,5.094910
240.270110,-7.699350,-14.001870,14.857744
240.370110,-2.956122,9.712969,-13.348386
240.470110,0.788867,3.520613,-4.071079
240.570110,1.526609,0.672800,-1.939743
240.670110,1.597622,3.363178,-8.745789
240.770110,-4.423798,-2.089572,2.605405
240.870110,0.878937,-4.592117,3.132931
240.970110,-1.280028,4.722355,-4.925288
241.070110,3.991265,0.490023,-11.149448
241.170110,2.938320,7.423152,-8.242518
241.270110,4.644287,-8.238041,12.835657
241.370110,1.619983,-12.090785,15.940784
241.470110,1.612024,4.578657,-5.041340
241.570110,0.615697,-5.171262,1.372694
241.670110,1.667515,-8.895380,10.170881
241.770110,3.523329,6.540512,-12.751185
241.870110,-0.020201,0.630602,0.649041
241.970110,1.676366,-2.572530,-6.423617
242.070110,0.240938,-2.559319,3.560384
242.170110,3.887286,1.209404,0.567449
242.270110,0.992745,-2.866702,2.159678
242.370110,1.341139,-0.775122,-0.803515
242.470110,0.572210,-1.714657,-3.657979
242.570110,-0.592809,-13.652635,17.462934
242.670110,-3.858124,3.042936,-11.268064
242.770110,-1.925208,0.142445,-2.924078
242.870110,-0.835072,7.068101,-16.478031
242.970110,0.095535,-5.847704,7.609382
243.070110,2.211068,-3.607318,-4.423234
243.170110,3.822568,-3.035568,5.247282
243.270110,4.462479,-5.116699,9.599325
243.370110,1.930583,0.547666,-2.163644
243.470110,-3.692084,-0.864992,-3.506159
243.570110,1.297222,-1.980027,-5.037227
243.670110,0.614048,-6.108284,4.697448
243.770110,-0.795372,-4.783208,1.631492
243.870110,-1.750293,5.411093,-8.825459
243.970110,-1.004079,2.339828,-9.143318
244.070110,-4.770097,-6.344924,6.327789
244.170110,0.519812,-2.892127,1.281712
244.270110,0.288232,3.795220,-0.500392
244.370110,0.188601,4.457688,-10.025642
244.470110,-0.537410,1.086698,-2.528046
244.570110,4.616139,0.605780,-0.527279
244.670110,2.295764,-8.650789,13.285346
244.770110,-0.557463,-14.955595,22.111639
244.870110,-1.882340,-0.842535,6.790826
244.970110,3.683410,-5.888100,3.452702
245.070110,-8.243124,1.274450,-7.809873
245.170110,1.182189,-1.358342,0.603000
245.270110,-0.739300,-0.446140,-3.384822
245.370110,-0.105249,-2.745687,0.148078
245.470110,-0.000759,-4.509897,3.058075
245.570110,2.669115,-6.589084,5.142831
245.670110,1.188771,5.625701,-2.794801
245.770110,-0.079617,-6.070190,0.085245
245.870110,1.697834,-7.916496,-5.085119
245.970110,-4.067812,0.423275,-9.601675
246.070110,-5.270236,-13.236639,13.448176
246.170110,-1.189024,6.125287,-9.374614
246.270110,0.813239,-3.960165,6.008346
246.370110,1.943749,3.818146,-0.994484
246.470110,0.346569,-11.044399,8.808820
246.570110,2.000258,10.242682,-24.355314
246.670110,3.169939,-18.651512,30.119593
246.770110,-2.663720,7.980706,-23.063213
246.870110,3.000978,-8.473116,5.010897
246.970110,4.749449,-7.445235,-0.672030
247.070110,-1.382084,-0.596022,-0.124755
247.170110,-1.711685,7.661331,-18.953850
247.270110,-2.620229,-6.434663,6.002226
247.370110,-2.794122,-8.590636,4.447217
247.470110,-1.773265,5.913250,-10.332687
247.570110,-0.850478,1.728051,0.022049
247.670110,2.147846,-5.462339,0.820232
247.770110,1.225361,-2.793938,6.394778
247.870110,4.116683,0.989521,0.904095
247.970110,2.508909,-3.100493,4.514094
248.070110,1.024582,1.460224,-9.058234
248.170110,-4.621725,-11.555390,11.822454
248.270110,2.203986,-5.401358,1.138493
248.370110,-6.261503,-0.508928,2.338091
248.470110,1.235312,-4.999818,-1.311827
248.570110,0.128197,6.502358,-12.067914
248.670110,2.526824,-6.496516,6.544593
248.770110,-1.157466,-3.600918,2.627650
248.870110,2.520808,-3.805238,-4.887408
248.970110,1.970259,-10.752112,12.125864
249.070110,0.723847,-8.979600,5.949578
249.170110,-0.403651,3.600371,-0.847923
249.270110,-6.485183,-2.799868,-4.145972
249.370110,-3.129163,-5.030927,1.170919
249.470110,-1.310765,11.078217,-18.763340
249.570110,1.413083,-6.321665,7.251630
249.670110,1.857922,3.310744,-8.240574
249.770110,2.802908,-7.313480,12.740574
249.870110,-0.288340,4.256128,-15.472413
249.970110,0.881893,3.189147,-4.148025
250.070110,-0.778031,-4.696894,-0.741715
250.170110,4.042244,-1.074081,4.107047
250.270110,2.968278,-0.642854,0.646749
250.370110,-0.714942,-2.286761,-0.057550
250.470110,-1.072010,-6.728530,3.906934
250.570110,1.186532,-1.645526,1.624067
250.670110,-1.000744,2.021318,-4.713031
250.770110,1.587806,2.070526,-6.165209
250.870110,2.473979,-4.236141,2.438038
250.970110,1.293637,-2.288798,-0.384383
251.070110,1.511703,-2.932343,4.120784
251.170110,-4.663934,6.007304,-15.175220
251.270110,-0.245964,10.605708,-17.319441
251.370110,0.446926,-9.139188,6.386139
251.470110,3.156893,2.754504,-4.207955
251.570110,-0.742580,4.013041,-2.460442
251.670110,1.403417,-0.323899,-0.524646
251.770110,1.013748,-11.144983,12.073357
251.870110,0.111426,-1.758266,3.191707
251.970110,-3.028302,3.445373,-5.832442
252.070110,-2.509820,-2.083081,-6.976407
252.170110,-3.745076,1.663713,-9.003958
252.270110,-0.723685,-4.080475,6.049772
252.370110,1.182100,2.113214,-8.251307
252.470110,0.397653,3.233762,-2.911761
252.570110,0.737135,-3.601071,-2.380094
252.670110,2.703481,-11.890759,9.604903
252.770110,1.145042,8.236445,-16.008867
252.870110,-1.149429,-40.183369,60.963200
252.970110,0.477001,25.049370,-30.036194
253.070110,3.237980,-9.762884,12.644186
253.170110,-8.595119,-5.501207,2.134007
253.270110,0.027651,4.394477,-13.376954
253.370110,2.514017,-9.306945,10.113205
253.470110,-2.616084,-2.147568,0.120398
253.570110,-0.450274,2.242514,-1.563748
253.670110,-0.843135,2.588595,-5.727383
253.770110,4.161334,5.317087,-8.117316
253.870110,1.295153,1.217491,-6.238539
253.970110,2.900497,-9.541614,16.685541
254.070110,-0.030905,2.138799,-5.988285
254.170110,-0.182510,3.084125,7.539691
254.270110,-0.335919,-9.437532,8.182760
254.370110,-3.285852,0.488768,-1.023209
254.470110,1.979338,-4.294738,0.686353
254.570110,0.029053,-3.999800,0.646044
254.670110,0.781362,0.316532,-3.360220
254.770110,2.659409,-5.015226,8.045393
254.870110,0.362787,-5.082448,4.000242
254.970110,-0.089397,4.729314,-4.291745
255.070110,0.114669,-5.258483,2.841250
255.170110,2.191337,-9.305828,4.870295
255.270110,-0.303798,5.452772,-11.504088
255.370110,-7.654507,-1.349705,-7.510674
255.470110,-4.965440,1.255029,-6.915906
255.570110,-0.878892,-0.038960,-7.131132
255.670110,1.129869,-1.347831,-4.828745
255.770110,2.180704,-6.127218,9.464417
255.870110,1.442872,14.067279,-24.648294
255.970110,7.379601,-12.391044,11.658292
256.070110,-2.985346,-5.591527,1.865322
256.170110,1.129910,14.103354,-16.434700
256.270110,-0.071746,-6.251051,5.540448
256.370110,3.952846,-10.193547,7.724607
256.470110,-0.638349,2.779245,-3.816371
256.570110,0.748834,2.668372,-6.450716
256.670110,-0.441754,0.437966,0.301437
256.770110,0.654949,-11.564484,11.285851
256.870110,4.191681,-1.874139,2.352283
256.970110,5.910235,3.582123,-9.665151
257.070110,4.360976,-8.288704,10.630542
257.170110,0.126032,-2.623852,1.750671
257.270110,0.147156,-1.395946,-3.596812
257.370110,-0.599236,-11.291858,18.807346
257.470110,3.501887,7.578132,-19.440281
257.570110,1.149771,-9.299974,10.089075
257.670110,1.807642,-8.816460,5.403677
257.770110,-2.595453,-0.165964,-0.037269
257.870110,-3.664924,-2.990795,-5.361677
257.970110,0.385894,1.421242,-0.729633
258.070110,-0.065158,2.004518,-5.219345
258.170110,0.672951,-13.893540,8.210844
258.270110,2.960429,12.598130,-17.866432
258.370110,4.823237,7.425587,-5.087451
258.470110,-0.411370,-10.359900,7.703007
258.570110,-0.503805,-7.961999,5.966143
258.670110,0.596199,-13.104183,8.725079
258.770110,3.738423,-13.988374,15.254177
258.870110,0.453606,1.983899,-8.789652
258.970110,-3.424335,-11.823146,17.233368
259.070110,-3.187674,2.241032,-9.602676
259.170110,-2.115275,1.372506,-2.312814
259.270110,0.432601,-2.834062,4.259069
259.370110,2.494728,-6.219475,7.200171
259.470110,-1.932810,-3.602336,-1.150642
259.570110,0.197549,-3.603808,6.369756
259.670110,2.248826,-9.293564,9.151011
259.770110,-2.186632,5.606349,-14.391603
259.870110,-0.205956,-10.483252,24.227581
259.970110,-4.049690,6.062119,-14.070895
260.070110,0.518587,-3.262514,-0.383697
260.170110,-2.120432,-1.008976,-1.258491
260.270110,5.375288,-0.994752,3.116761
260.370110,0.054803,-7.629414,6.098711
260.470110,-1.460980,8.505559,-13.005661
260.570110,-5.199095,-5.030791,2.382818
260.670110,1.459118,0.664270,-1.208240
260.770110,3.530603,-0.087193,7.965885
260.870110,-0.371331,7.131937,-17.261683
260.970110,3.260850,-1.889595,8.371045
261.070110,3.092432,4.754997,-4.874801
261.170110,-2.175322,-14.411711,12.095514
261.270110,4.200644,6.480859,-5.106402
261.370110,0.604131,4.633211,-5.458411
261.470110,-0.446345,-0.505121,-5.725091
261.570110,0.565445,7.338241,-4.762020
261.670110,-1.924408,-0.872261,1.041602
261.770110,1.711486,-9.352503,7.346764
261.870110,2.176318,-5.345495,-0.177433
261.970110,-0.619755,-5.511935,8.062607
262.070110,-0.455243,-7.121003,5.153728
262.170110,3.087364,9.705638,-6.394783
262.270110,3.962801,-1.197084,0.235074
262.370110,-0.865700,-2.083030,-5.288172
262.470110,-2.586730,0.417976,5.136778
262.570110,-2.143535,-1.273590,1.913547
262.670110,-3.156393,-9.444750,8.026577
262.770110,-5.473211,-7.291130,7.935790
262.870110,-2.898005,-12.826322,13.991980
262.970110,-3.297871,5.456659,-8.766145
263.070110,-1.125936,-5.188175,9.276958
263.170110,-1.618373,7.406147,1.582563
263.270110,-0.070325,-8.464314,5.151335
263.370110,-1.474728,2.102995,-9.329233
263.470110,-6.923591,5.785834,-7.397023
263.570110,-4.668804,-7.649993,12.603535
263.670110,-2.883518,7.920374,-7.291838
263.770110,-4.238127,3.713537,-4.684863
263.870110,0.690463,-3.762798,7.050711
263.970110,-3.744251,1.829257,-4.298360
264.070110,-0.623893,-20.909250,25.006746
264.170110,8.083403,-19.307823,23.831699
264.270110,-13.870519,6.452236,-10.795179
264.370110,17.801077,7.288701,-4.563239
264.470110,-7.200308,-6.264566,12.441765
264.570110,-0.008622,0.107510,0.464286
264.670110,-3.959954,1.021802,-0.826896
264.770110,1.636266,-1.738823,1.952577
264.870110,-1.136920,0.838631,0.149120
264.970110,-3.899034,1.343384,-1.749224
265.070110,-0.702857,0.844503,-1.352075
265.170110,-1.215170,0.797475,-0.361736
265.270110,0.374070,-0.647940,2.977340
265.370110,-2.472912,-1.817779,1.870083
265.470110,-4.283450,-8.371293,9.125344
265.570110,-2.271459,1.782100,-4.302967
265.670110,-2.362187,-0.121301,2.486204
265.770110,-1.183278,0.017701,-0.892302
265.870110,-3.701978,1.341707,-1.559106
265.970110,-3.501779,-1.028161,1.885337
266.070110,0.483951,0.987685,-2.279830
266.170110,-2.790207,4.026541,-6.517088
266.270110,-0.729081,-1.796057,3.529854
266.370110,-2.370226,3.848751,-7.828099
266.470110,-3.686811,-2.338295,2.572551
266.570110,-0.992773,0.266062,0.317968
266.670110,-1.435673,1.990827,-3.166851
266.770110,3.116304,-0.504121,1.624965
266.870110,-12.668835,-55.221714,8.309919
266.970110,8.606287,2.061402,1.675921
267.070110,-4.658084,0.479195,-3.487370
267.170110,6.266902,-49.479671,17.980888
267.270110,-14.686465,5.928211,-20.460735
267.370110,1.040624,-1.884396,-2.337357
267.470110,-2.376827,4.906523,-11.268455
267.570110,-3.121196,-3.571618,-0.449077
267.670110,-1.932711,-6.050297,-18.737783
267.770110,-2.027068,13.225101,-24.313728
267.870110,-5.887485,0.640530,0.233297
267.970110,-4.022098,24.899723,-28.061882
268.070110,-1.939114,-6.881222,8.498333
268.170110,2.268023,1.278349,3.189391
268.270110,1.383085,-8.042734,7.691622
268.370110,1.105433,6.173831,-6.192729
268.470110,-2.290261,1.711406,-3.309231
268.570110,-1.067962,2.024374,-3.605396
268.670110,-3.164350,-1.733184,-0.844623
268.770110,0.143217,-3.196486,2.661431
268.870110,2.675464,-3.289294,1.762561
268.970110,-2.569710,2.183673,-6.155621
269.070110,-3.550072,2.112227,-2.668229
269.170110,-0.735074,-3.701668,3.825180
269.270110,-0.995012,-1.210228,2.091434
269.370110,4.372271,8.799343,-12.948280
269.470110,0.301911,-20.531929,24.553661
269.570110,-3.338439,6.053610,-11.719636
269.670110,-9.566823,4.110505,-2.026129
269.770110,0.336734,2.395942,-6.747943
269.870110,-2.185752,5.717103,-20.542048
269.970110,8.713158,-3.580311,1.377245
270.070110,-1.595879,-4.192741,6.628571
270.170110,2.207268,-0.157694,9.097459
270.270110,2.344526,1.026541,-0.059969
270.370110,-1.294012,-2.888504,-1.177940
270.470110,1.461255,0.512285,-1.901217
270.570110,-0.453155,1.065508,-2.023913
270.670110,0.159577,-1.639745,-0.905817
270.770110,3.357030,1.521137,-0.787297
270.870110,1.517924,-6.036555,3.952866
270.970110,0.537274,-2.696905,-1.257828
271.070110,3.482498,-12.053713,13.843809
271.170110,5.902307,1.626165,-0.161070
271.270110,5.819882,-22.038660,40.211082
271.370110,-6.340708,2.096403,-24.568844
271.470110,9.136931,-8.413397,7.847680
271.570110,7.350023,1.606070,-1.283005
271.670110,-0.522127,1.341824,-3.867497
271.770110,1.633756,-3.732139,6.147220
271.870110,2.199140,-3.126340,2.242066
271.970110,0.392514,0.214382,-1.669725
272.070110,-2.839208,-9.127226,3.184362
272.170110,1.157552,0.597637,1.689491
272.270110,1.985673,-5.794661,2.273993
272.370110,3.163474,-4.497167,0.674401
272.470110,5.862051,-10.411855,12.056561
272.570110,1.254085,0.489524,-0.628155
272.670110,-0.037140,8.406689,-8.230342
272.770110,1.318942,-8.305348,8.692634
272.870110,3.089472,-1.096109,-2.920125
272.970110,1.593676,6.158754,-8.714111
273.070110,-1.511861,-9.979699,5.828122
273.170110,1.539469,-1.027931,0.869373
273.270110,3.096856,3.158850,-3.959234
273.370110,-0.193044,-10.238902,9.045110
273.470110,-5.380638,4.755023,-10.144579
273.570110,2.994727,-2.802450,-1.068545
273.670110,-1.072134,-0.735532,0.610407
273.770110,1.421669,7.633269,-10.255626
273.870110,-1.470423,-1.741188,3.248407
273.970110,-2.203804,7.937385,-13.268048
274.070110,-1.701093,3.563215,-4.862450
274.170110,4.280533,-6.380039,6.985403
274.270110,-0.185979,-0.848332,1.999252
274.370110,4.445810,0.299477,2.840819
274.470110,0.357979,-4.028585,2.813429
274.570110,-2.481085,2.495029,-7.207586
274.670110,-3.124735,-3.313581,3.849800
274.770110,2.853623,-5.897144,3.879992
274.870110,-1.768555,-0.168643,-4.879596
274.970110,3.941616,-5.394155,1.793398
275.070110,0.712557,6.721616,-5.265122
275.170110,0.268430,0.817092,-2.604966
275.270110,-1.070354,1.558734,-4.732314
275.370110,-1.745214,-0.780580,0.577423
275.470110,-0.713158,-8.186347,5.765549
275.570110,0.386330,3.762218,-5.628598
275.670110,2.283815,6.581963,-6.343083
275.770110,4.676490,-9.116298,11.687077
275.870110,-0.855016,0.645328,-6.517247
275.970110,-1.912008,-2.594866,6.273957
276.070110,2.173780,1.403506,-6.934720
276.170110,3.810436,-1.355899,-0.969296
276.270110,2.144569,-2.986478,0.024474
276.370110,1.345174,-8.601327,7.646899
276.470110,-1.465343,1.096185,-8.729366
276.570110,-2.000523,6.325530,-8.919500
276.670110,1.837611,-6.398920,7.777696
276.770110,-2.575863,-0.293531,-3.864069
276.870110,1.809360,-3.818042,2.802192
276.970110,3.411603,0.223218,-4.152835
277.070110,0.538026,2.572142,-5.891629
277.170110,-3.464279,0.589946,-3.812329
277.270110,0.518558,2.457541,-4.568718
277.370110,1.647921,-2.875757,-2.001495
277.470110,0.778979,1.481474,-0.856128
277.570110,-4.116367,-4.447826,-3.461393
277.670110,-1.795900,-0.395021,-7.605902
277.770110,1.102740,-6.811138,12.506589
277.870110,-0.348138,5.347983,-17.405136
277.970110,0.757293,-3.381593,5.993176
278.070110,-5.594084,-8.215622,9.343888
278.170110,-0.076333,-5.956306,5.512707
278.270110,0.142132,-3.878843,1.602917
278.370110,2.712487,1.258031,2.468798
278.470110,-0.466871,-1.511224,0.600243
278.570110,-3.027280,-6.288421,2.236222
278.670110,-1.999511,-2.244844,1.279688
278.770110,3.314525,-0.048746,5.990237
278.870110,0.132184,10.731256,-14.967448
278.970110,-0.010872,-7.606368,14.345100
279.070110,1.171784,3.314264,-8.646633
279.170110,0.416414,-0.795551,-2.797078
279.270110,-0.415023,0.103325,-4.263826
279.370110,-2.641266,-2.998546,4.029539
279.470110,-0.796478,4.561259,-8.479939
279.570110,-0.584319,-7.909099,15.267699
279.670110,4.917780,6.577511,-6.180601
279.770110,1.192073,-1.780189,-1.079656
279.870110,-2.230224,-11.450744,12.060781
279.970110,-0.803696,-4.142699,6.997306
280.070110,-0.713520,3.906374,-10.189556
280.170110,1.848816,1.136560,-3.269592
280.270110,-5.590059,-1.613082,0.918018
280.370110,-2.751864,0.539071,-3.792111
280.470110,-0.699892,0.885676,1.357141
280.570110,1.420374,2.131841,-3.411190
280.670110,0.417603,-10.464150,10.989423
280.770110,-2.419293,6.444112,-8.179016
280.870110,0.824895,-5.849474,4.566044
280.970110,0.758022,4.689038,-6.687952
281.070110,5.140320,-13.629890,21.083048
281.170110,-0.585028,4.435874,-6.408944
281.270110,1.916446,0.666590,-1.350923
281.370110,-0.001962,2.087673,-1.041968
281.470110,3.220716,-3.194152,-6.118114
281.570110,-0.742451,-3.860773,9.934671
281.670110,-3.700786,3.360473,-6.089857
281.770110,-1.889680,0.306876,-0.436599
281.870110,2.550534,-1.470408,1.211313
281.970110,-0.308724,-3.379260,-2.058399
282.070110,-4.258631,3.528383,-8.295201
282.170110,-1.769157,-9.016010,10.510213
282.270110,-0.785688,-2.237909,3.400074
282.370110,-1.364499,-2.308409,1.217258
282.470110,1.420315,3.935455,-8.687010
282.570110,-1.164956,0.871762,3.076554
282.670110,2.105441,-6.503695,4.825671
282.770110,1.838382,-3.061374,-2.437732
282.870110,1.314076,1.258404,1.429240
282.970110,-3.320948,-2.856586,0.283784
283.070110,1.169217,-8.145500,7.264338
283.170110,-0.288538,2.002484,-5.889162
283.270110,-0.932320,2.937899,-8.561935
283.370110,0.696368,-3.636885,3.201565
283.470110,3.016877,-0.583227,-1.128254
283.570110,0.673456,2.784894,-2.703935
283.670110,-1.899838,-7.573432,-2.328274
283.770110,1.041757,0.652147,3.727370
283.870110,2.484549,-3.170050,1.195725
283.970110,1.589479,-9.385370,4.862161
284.070110,-1.443105,1.166498,-3.840938
284.170110,-2.987166,-4.602798,8.405313
284.270110,0.603894,-1.574804,-0.761246
284.370110,6.159625,1.729903,0.937950
284.470110,0.789614,-10.957352,21.308937
284.570110,-0.203585,-11.537457,7.578431
284.670110,-1.486007,7.008184,-12.671615
284.770110,0.708731,-7.044377,7.023446
284.870110,1.933069,-4.324552,6.873997
284.970110,-0.632369,0.343701,-5.535025
285.070110,-1.076747,-3.122398,7.313825
285.170110,1.192863,0.089685,-1.339006
285.270110,-0.472011,-3.880630,1.367095
285.370110,-0.086511,6.366905,-9.201027
285.470110,-0.686824,-7.103443,3.687525
285.570110,-2.150007,0.059402,-8.522655
285.670110,4.054938,-6.560615,3.228867
285.770110,-4.321757,11.809251,-22.240191
285.870110,-1.008844,-2.367308,1.868761
285.970110,1.319237,-8.660324,8.467430
286.070110,2.172127,-3.683352,4.973634
286.170110,-3.115426,2.811625,-7.565126
286.270110,0.439310,-0.115666,-4.392030
286.370110,1.816447,-2.473552,2.090374
286.470110,0.709143,-6.882916,3.609420
286.570110,1.278253,6.498284,-4.750081
286.670110,2.345928,2.169475,-1.402391
286.770110,0.654355,-12.288014,11.456326
286.870110,-1.065031,-1.272166,-1.104817
286.970110,-1.219314,9.960297,-21.422356
287.070110,2.760328,-17.279797,20.598545
287.170110,2.621272,-4.006152,7.834845
287.270110,-0.458078,5.379207,-6.016718
287.370110,3.511954,-3.456429,1.620314
287.470110,2.505897,-0.168356,-4.214528
287.570110,4.619219,-4.164599,3.290849
287.670110,-1.298846,-2.313091,0.376840
287.770110,-3.503046,-6.156712,6.397841
287.870110,1.757419,0.378608,3.803426
287.970110,-0.452943,-5.034990,0.696169
288.070110,1.045587,-12.139318,6.937548
288.170110,-1.875376,-6.159922,11.357277
288.270110,-2.460678,6.226336,-11.470176
288.370110,-0.819262,-4.621466,5.149292
288.470110,5.902828,-3.817565,5.398940
288.570110,-0.221469,0.568930,-0.657876
288.670110,0.436303,-2.214701,-4.766885
288.770110,-0.025053,-2.300012,5.265999
288.870110,0.456163,-5.594370,6.766033
288.970110,1.978745,-3.106474,3.177689
289.070110,1.857515,-0.541313,-8.324931
289.170110,0.211484,2.357750,-2.942057
289.270110,1.457221,-4.473420,0.269185
289.370110,-2.770182,-3.866931,4.829403
289.470110,2.503290,-10.760459,6.592416
289.570110,-0.810691,-6.662933,2.219319
289.670110,0.970750,-3.661017,4.884213
289.770110,2.143492,-7.578717,11.163629
289.870110,-5.028546,4.864738,-9.695386
289.970110,-1.678713,2.395903,-4.072797
290.070110,2.522233,6.568557,-11.026266
290.170110,0.016112,2.287909,-2.099197
290.270110,2.781279,-11.991783,22.548386
290.370110,-2.935128,7.026567,-16.839163
290.470110,-4.179258,-11.878573,1.935662
290.570110,-0.276822,-0.132413,-10.047405
290.670110,-3.925952,7.383317,-0.359829
290.770110,1.757077,-10.640419,16.895979
290.870110,1.809800,-10.785780,14.059483
290.970110,-2.290285,0.953420,-6.110847
291.070110,0.261437,6.352816,-14.447280
291.170110,-0.644192,-16.890614,17.724300
291.270110,1.197696,6.379298,-6.772215
291.370110,3.057453,0.486091,0.520501
291.470110,-2.671869,2.517306,-7.393619
291.570110,2.375700,-11.392145,15.331336
291.670110,-0.056936,10.546210,-17.864296
291.770110,0.985534,-3.415528,7.253550
291.870110,0.609400,-4.287426,3.311033
291.970110,1.758946,-11.721648,9.020832
292.070110,3.210597,-9.093719,16.714901
292.170110,1.877333,-22.800056,30.966463
292.270110,-4.173047,18.421669,-25.469688
292.370110,0.921129,-14.718858,5.701878
292.470110,0.426929,2.975800,-9.160178
292.570110,-1.104151,-7.370486,5.891773
292.670110,-0.464291,-5.250455,6.455370
292.770110,1.174359,2.395272,-6.667923
292.870110,-3.735605,-6.158527,0.999289
292.970110,2.798216,7.318030,-13.686510
293.070110,3.601957,-8.988297,9.703239
293.170110,-0.071121,-3.898051,-1.946869
293.270110,0.479933,-2.153897,-4.149707
293.370110,-1.212479,-13.531709,16.221872
293.470110,1.496240,4.522208,-4.376122
293.570110,0.895509,-14.560836,12.180073
293.670110,-0.891467,0.640917,-7.174416
293.770110,5.236757,2.069107,3.219725
293.870110,0.385009,-5.047169,7.228119
293.970110,0.933267,4.121061,-3.462749
294.070110,-1.468030,-6.916174,4.149149
294.170110,3.744666,14.887251,-15.714096
294.270110,1.721453,-17.086456,20.655724
294.370110,-2.040248,6.514232,-9.845853
294.470110,1.706087,0.810734,-8.119219
294.570110,1.009836,-2.376671,-1.468550
294.670110,-3.854599,16.766760,-27.777035
294.770110,2.273928,-7.771019,2.290897
294.870110,-0.637120,-5.992438,9.701310
294.970110,-0.169737,6.435530,-10.597157
295.070110,-3.297573,-3.318718,-4.065779
295.170110,-1.346807,2.950039,-6.261203
295.270110,0.730354,-4.509851,3.826433
295.370110,1.644076,-3.025836,3.979665
295.470110,0.797018,3.805716,-12.984439
295.570110,1.998895,-4.753551,3.271862
295.670110,0.203648,-15.262886,21.410086
295.770110,1.606139,15.963687,-26.281586
295.870110,1.732478,9.402215,-6.509115
295.970110,4.004346,-27.235670,27.113064
296.070110,-1.367664,3.909026,-3.892890
296.170110,1.344282,5.836529,-8.007377
296.270110,-0.977282,-14.165516,8.368591
296.370110,2.757526,3.973911,-12.296762
296.470110,3.906720,-0.035890,1.486454
296.570110,2.343967,-14.572664,15.319097
296.670110,-1.220194,-5.613142,8.709814
296.770110,0.221483,9.679416,-17.909687
296.870110,1.126139,-2.646505,2.283745
296.970110,1.277651,-9.028802,7.225283
297.070110,0.282888,-15.394481,19.929661
297.170110,-0.420227,-2.690375,-1.334864
297.270110,-5.894677,3.042144,-3.630294
297.370110,-4.451712,-14.842546,0.126826
297.470110,-0.756928,-14.272018,13.435716
297.570110,1.603697,2.819788,-2.748194
297.670110,-0.662143,7.734004,-21.726173
297.770110,-7.639210,-0.581642,-17.236712
297.870110,0.136602,-5.529727,12.215122
297.970110,2.535506,-16.331265,3.315955
298.070110,-0.741561,1.653449,-11.200977
298.170110,4.247634,-4.737200,8.115069
298.270110,-1.337080,-11.928034,4.886548
298.370110,-0.318319,-0.556774,-6.192981
298.470110,-2.223055,1.451304,1.528315
298.570110,-1.271273,-12.425711,18.546875
298.670110,4.347674,-3.117934,7.336029
298.770110,0.212230,-6.963185,0.202274
298.870110,1.042868,-1.750445,1.852252
298.970110,1.054127,8.908489,-1.510670
299.070110,0.228780,-16.180588,15.120029
299.170110,-2.262171,-4.480533,-3.952581
299.270110,-0.232561,1.748776,3.833624
299.370110,5.675365,-6.162212,1.283481
299.470110,0.856620,3.137685,-5.355585
299.570110,-4.847044,-15.808397,7.903853
299.670110,0.252889,10.891755,-14.947352
299.770110,-0.471238,-10.298184,19.000931
299.870110,4.160536,-9.104073,11.636129
299.970110,3.274975,-4.431325,-6.141462
300.070110,-0.565081,2.081945,-6.168460
300.170110,1.818656,-4.109552,-3.605465
300.270110,1.632742,9.606127,-4.833099
300.370110,-1.520867,-17.594072,20.028807
300.470110,-2.363675,14.561443,-23.798340
300.570110,-1.435812,-18.424475,15.072289
300.670110,1.669584,-2.608919,-6.097825
300.770110,0.288000,2.555944,-14.241498
300.870110,-2.914051,-3.913424,-8.079358
300.970110,-0.429728,-0.862131,-1.513696
301.070110,-2.429281,3.239748,1.946581
301.170110,1.986202,-0.009515,-5.190372
301.270110,4.876555,-10.134132,22.894028
301.370110,2.907871,2.960395,-9.851482
301.470110,-3.887071,-6.352526,8.048221
301.570110,1.532614,-4.410856,11.952703
301.670110,0.605192,6.404314,-6.688665
301.770110,3.069243,-4.870667,2.007797
301.870110,-2.909883,-4.578367,0.420804
301.970110,-0.579395,-1.290176,-2.561393
302.070110,-5.024595,3.010653,4.950448
302.170110,1.999569,-4.794830,12.733810
302.270110,-3.418337,7.715023,-21.216089
302.370110,-1.932662,-14.532233,10.857723
302.470110,-0.780895,-4.085072,0.714923
302.570110,2.199007,23.132069,-32.197689
302.670110,-5.163699,-22.823927,18.707693
302.770110,3.812079,0.200982,-12.523154
302.870110,2.378301,-13.396302,-21.494116
302.970110,0.526562,3.895101,-8.983032
303.070110,-2.081724,-3.867806,0.707668
303.170110,-2.996125,-36.315887,24.436934
303.270110,-2.528376,18.718143,-31.957306
303.370110,4.428643,-23.407829,-6.462430
303.470110,-10.932181,1.100395,-4.426389
303.570110,4.325961,15.134513,-25.494059
303.670110,-6.632388,-20.409710,19.235868
303.770110,0.360348,-1.181339,-3.887667
303.870110,-4.042858,1.116054,3.746283
303.970110,-8.818272,-0.631510,0.457523
304.070110,-1.002019,-6.243587,-5.226543
304.170110,-3.932241,0.597107,7.677968
304.270110,0.066503,-5.063960,9.094078
304.370110,0.380283,-6.925655,2.871882
